wordCTK,colorCTK,corrAnsCTK,congruentCTK,wordPractice,colorPractice,congruentPractice,word,color,corrAns,congruent,trials_practice.thisRepN,trials_practice.thisTrialN,trials_practice.thisN,trials_test.thisRepN,trials_test.thisTrialN,trials_test.thisN,keyResp_test_run.keys,keyResp_test_run.corr,keyResp_test_run.rt,participant
NA,NA,NA,NA,NA,NA,NA,NA,NA,NA,NA,NA,NA,NA,NA,NA,NA,NA,NA,NA,sub-29883729
NA,NA,NA,NA,NA,NA,NA,NA,NA,NA,NA,NA,NA,NA,NA,NA,NA,NA,NA,NA,sub-29883729
test,red,r,1,NA,NA,NA,NA,NA,NA,NA,NA,NA,NA,NA,NA,NA,NA,NA,NA,sub-29883729
test,yellow,g,1,NA,NA,NA,NA,NA,NA,NA,NA,NA,NA,NA,NA,NA,NA,NA,NA,sub-29883729
test,blue,b,1,NA,NA,NA,NA,NA,NA,NA,NA,NA,NA,NA,NA,NA,NA,NA,NA,sub-29883729
test,yellow,g,1,NA,NA,NA,NA,NA,NA,NA,NA,NA,NA,NA,NA,NA,NA,NA,NA,sub-29883729
test,blue,b,1,NA,NA,NA,NA,NA,NA,NA,NA,NA,NA,NA,NA,NA,NA,NA,NA,sub-29883729
test,red,r,1,NA,NA,NA,NA,NA,NA,NA,NA,NA,NA,NA,NA,NA,NA,NA,NA,sub-29883729
test,red,r,1,NA,NA,NA,NA,NA,NA,NA,NA,NA,NA,NA,NA,NA,NA,NA,NA,sub-29883729
test,yellow,g,1,NA,NA,NA,NA,NA,NA,NA,NA,NA,NA,NA,NA,NA,NA,NA,NA,sub-29883729
test,blue,b,1,NA,NA,NA,NA,NA,NA,NA,NA,NA,NA,NA,NA,NA,NA,NA,NA,sub-29883729
test,blue,b,1,NA,NA,NA,NA,NA,NA,NA,NA,NA,NA,NA,NA,NA,NA,NA,NA,sub-29883729
test,red,r,1,NA,NA,NA,NA,NA,NA,NA,NA,NA,NA,NA,NA,NA,NA,NA,NA,sub-29883729
test,yellow,g,1,NA,NA,NA,NA,NA,NA,NA,NA,NA,NA,NA,NA,NA,NA,NA,NA,sub-29883729
NA,NA,NA,NA,NA,NA,NA,NA,NA,NA,NA,NA,NA,NA,NA,NA,NA,NA,NA,NA,sub-29883729
NA,NA,NA,NA,gelb,blue,0,NA,NA,NA,NA,0,0,0,NA,NA,NA,NA,NA,NA,sub-29883729
NA,NA,NA,NA,rot,yellow,0,NA,NA,NA,NA,0,1,1,NA,NA,NA,NA,NA,NA,sub-29883729
NA,NA,NA,NA,rot,blue,0,NA,NA,NA,NA,0,2,2,NA,NA,NA,NA,NA,NA,sub-29883729
NA,NA,NA,NA,blau,red,0,NA,NA,NA,NA,0,3,3,NA,NA,NA,NA,NA,NA,sub-29883729
NA,NA,NA,NA,rot,red,1,NA,NA,NA,NA,0,4,4,NA,NA,NA,NA,NA,NA,sub-29883729
NA,NA,NA,NA,gelb,yellow,1,NA,NA,NA,NA,0,5,5,NA,NA,NA,NA,NA,NA,sub-29883729
NA,NA,NA,NA,gelb,red,0,NA,NA,NA,NA,0,6,6,NA,NA,NA,NA,NA,NA,sub-29883729
NA,NA,NA,NA,blau,yellow,0,NA,NA,NA,NA,0,7,7,NA,NA,NA,NA,NA,NA,sub-29883729
NA,NA,NA,NA,gelb,yellow,1,NA,NA,NA,NA,0,8,8,NA,NA,NA,NA,NA,NA,sub-29883729
NA,NA,NA,NA,blau,blue,1,NA,NA,NA,NA,0,9,9,NA,NA,NA,NA,NA,NA,sub-29883729
NA,NA,NA,NA,rot,red,1,NA,NA,NA,NA,0,10,10,NA,NA,NA,NA,NA,NA,sub-29883729
NA,NA,NA,NA,blau,blue,1,NA,NA,NA,NA,0,11,11,NA,NA,NA,NA,NA,NA,sub-29883729
NA,NA,NA,NA,gelb,blue,0,NA,NA,NA,NA,1,0,12,NA,NA,NA,NA,NA,NA,sub-29883729
NA,NA,NA,NA,blau,red,0,NA,NA,NA,NA,1,1,13,NA,NA,NA,NA,NA,NA,sub-29883729
NA,NA,NA,NA,blau,blue,1,NA,NA,NA,NA,1,2,14,NA,NA,NA,NA,NA,NA,sub-29883729
NA,NA,NA,NA,gelb,yellow,1,NA,NA,NA,NA,1,3,15,NA,NA,NA,NA,NA,NA,sub-29883729
NA,NA,NA,NA,gelb,yellow,1,NA,NA,NA,NA,1,4,16,NA,NA,NA,NA,NA,NA,sub-29883729
NA,NA,NA,NA,blau,yellow,0,NA,NA,NA,NA,1,5,17,NA,NA,NA,NA,NA,NA,sub-29883729
NA,NA,NA,NA,rot,red,1,NA,NA,NA,NA,1,6,18,NA,NA,NA,NA,NA,NA,sub-29883729
NA,NA,NA,NA,gelb,red,0,NA,NA,NA,NA,1,7,19,NA,NA,NA,NA,NA,NA,sub-29883729
NA,NA,NA,NA,rot,blue,0,NA,NA,NA,NA,1,8,20,NA,NA,NA,NA,NA,NA,sub-29883729
NA,NA,NA,NA,rot,red,1,NA,NA,NA,NA,1,9,21,NA,NA,NA,NA,NA,NA,sub-29883729
NA,NA,NA,NA,rot,yellow,0,NA,NA,NA,NA,1,10,22,NA,NA,NA,NA,NA,NA,sub-29883729
NA,NA,NA,NA,blau,blue,1,NA,NA,NA,NA,1,11,23,NA,NA,NA,NA,NA,NA,sub-29883729
NA,NA,NA,NA,NA,NA,NA,NA,NA,NA,NA,NA,NA,NA,NA,NA,NA,NA,NA,NA,sub-29883729
NA,NA,NA,NA,NA,NA,NA,rot,red,r,1,NA,NA,NA,0,0,0,r,1,0.6592987920157611,sub-29883729
NA,NA,NA,NA,NA,NA,NA,gelb,red,r,0,NA,NA,NA,0,1,1,r,1,0.6367042500060052,sub-29883729
NA,NA,NA,NA,NA,NA,NA,rot,red,r,1,NA,NA,NA,0,2,2,r,1,0.5918994590174407,sub-29883729
NA,NA,NA,NA,NA,NA,NA,rot,blue,b,0,NA,NA,NA,0,3,3,b,1,0.6118415000382811,sub-29883729
NA,NA,NA,NA,NA,NA,NA,blau,red,r,0,NA,NA,NA,0,4,4,r,1,0.856175500084646,sub-29883729
NA,NA,NA,NA,NA,NA,NA,gelb,yellow,g,1,NA,NA,NA,0,5,5,g,1,0.43766170798335224,sub-29883729
NA,NA,NA,NA,NA,NA,NA,blau,blue,b,1,NA,NA,NA,0,6,6,b,1,0.5855704160640016,sub-29883729
NA,NA,NA,NA,NA,NA,NA,blau,yellow,g,0,NA,NA,NA,0,7,7,g,1,0.40973866602871567,sub-29883729
NA,NA,NA,NA,NA,NA,NA,blau,blue,b,1,NA,NA,NA,0,8,8,b,1,0.47344937501475215,sub-29883729
NA,NA,NA,NA,NA,NA,NA,gelb,blue,b,0,NA,NA,NA,0,9,9,b,1,0.5983697079354897,sub-29883729
NA,NA,NA,NA,NA,NA,NA,rot,yellow,g,0,NA,NA,NA,0,10,10,g,1,0.6552306660450995,sub-29883729
NA,NA,NA,NA,NA,NA,NA,gelb,yellow,g,1,NA,NA,NA,0,11,11,g,1,0.6363885420141742,sub-29883729
NA,NA,NA,NA,NA,NA,NA,blau,blue,b,1,NA,NA,NA,1,0,12,b,1,0.5801384999649599,sub-29883729
NA,NA,NA,NA,NA,NA,NA,rot,red,r,1,NA,NA,NA,1,1,13,r,1,0.5547097079688683,sub-29883729
NA,NA,NA,NA,NA,NA,NA,gelb,red,r,0,NA,NA,NA,1,2,14,r,1,0.4853368329349905,sub-29883729
NA,NA,NA,NA,NA,NA,NA,rot,blue,b,0,NA,NA,NA,1,3,15,b,1,0.5639507910236716,sub-29883729
NA,NA,NA,NA,NA,NA,NA,rot,yellow,g,0,NA,NA,NA,1,4,16,g,1,0.6787117089843377,sub-29883729
NA,NA,NA,NA,NA,NA,NA,rot,red,r,1,NA,NA,NA,1,5,17,r,1,0.5936967500019819,sub-29883729
NA,NA,NA,NA,NA,NA,NA,gelb,yellow,g,1,NA,NA,NA,1,6,18,g,1,0.4813113750424236,sub-29883729
NA,NA,NA,NA,NA,NA,NA,blau,yellow,g,0,NA,NA,NA,1,7,19,g,1,0.5064119580201805,sub-29883729
NA,NA,NA,NA,NA,NA,NA,blau,red,r,0,NA,NA,NA,1,8,20,r,1,0.605682292021811,sub-29883729
NA,NA,NA,NA,NA,NA,NA,blau,blue,b,1,NA,NA,NA,1,9,21,b,1,0.40679354197345674,sub-29883729
NA,NA,NA,NA,NA,NA,NA,gelb,yellow,g,1,NA,NA,NA,1,10,22,g,1,0.5443751669954509,sub-29883729
NA,NA,NA,NA,NA,NA,NA,gelb,blue,b,0,NA,NA,NA,1,11,23,b,1,0.64653033297508955,sub-29883729
NA,NA,NA,NA,NA,NA,NA,gelb,yellow,g,1,NA,NA,NA,2,0,24,g,1,0.6227528329472989,sub-29883729
NA,NA,NA,NA,NA,NA,NA,rot,yellow,g,0,NA,NA,NA,2,1,25,g,1,0.405944584053941,sub-29883729
NA,NA,NA,NA,NA,NA,NA,blau,blue,b,1,NA,NA,NA,2,2,26,b,1,0.5246364161139354,sub-29883729
NA,NA,NA,NA,NA,NA,NA,gelb,red,r,0,NA,NA,NA,2,3,27,r,1,0.3197047079447657,sub-29883729
NA,NA,NA,NA,NA,NA,NA,gelb,blue,b,0,NA,NA,NA,2,4,28,b,1,0.7209037499269471,sub-29883729
NA,NA,NA,NA,NA,NA,NA,blau,yellow,g,0,NA,NA,NA,2,5,29,g,1,0.40086170798167586,sub-29883729
NA,NA,NA,NA,NA,NA,NA,gelb,yellow,g,1,NA,NA,NA,2,6,30,g,1,0.5412738339509815,sub-29883729
NA,NA,NA,NA,NA,NA,NA,rot,blue,b,0,NA,NA,NA,2,7,31,b,1,0.4925396660109982,sub-29883729
NA,NA,NA,NA,NA,NA,NA,blau,red,r,0,NA,NA,NA,2,8,32,r,1,0.5073299170471728,sub-29883729
NA,NA,NA,NA,NA,NA,NA,blau,blue,b,1,NA,NA,NA,2,9,33,b,1,0.5648649579379708,sub-29883729
NA,NA,NA,NA,NA,NA,NA,rot,red,r,1,NA,NA,NA,2,10,34,r,1,0.6286173750413582,sub-29883729
NA,NA,NA,NA,NA,NA,NA,rot,red,r,1,NA,NA,NA,2,11,35,r,1,0.5646372500341386,sub-29883729
NA,NA,NA,NA,NA,NA,NA,rot,red,r,1,NA,NA,NA,3,0,36,r,1,0.5710742080118507,sub-29883729
NA,NA,NA,NA,NA,NA,NA,blau,red,r,0,NA,NA,NA,3,1,37,r,1,0.4101828340208158,sub-29883729
NA,NA,NA,NA,NA,NA,NA,rot,red,r,1,NA,NA,NA,3,2,38,r,1,0.5861455840058625,sub-29883729
NA,NA,NA,NA,NA,NA,NA,rot,yellow,g,0,NA,NA,NA,3,3,39,g,1,0.42217233404517174,sub-29883729
NA,NA,NA,NA,NA,NA,NA,gelb,yellow,g,1,NA,NA,NA,3,4,40,g,1,0.5102185419527814,sub-29883729
NA,NA,NA,NA,NA,NA,NA,gelb,blue,b,0,NA,NA,NA,3,5,41,b,1,0.548585708020255,sub-29883729
NA,NA,NA,NA,NA,NA,NA,gelb,red,r,0,NA,NA,NA,3,6,42,r,1,0.740805667010136,sub-29883729
NA,NA,NA,NA,NA,NA,NA,blau,yellow,g,0,NA,NA,NA,3,7,43,g,1,0.5451003330526873,sub-29883729
NA,NA,NA,NA,NA,NA,NA,gelb,yellow,g,1,NA,NA,NA,3,8,44,g,1,0.3903575409203768,sub-29883729
NA,NA,NA,NA,NA,NA,NA,rot,blue,b,0,NA,NA,NA,3,9,45,b,1,0.5409748749807477,sub-29883729
NA,NA,NA,NA,NA,NA,NA,blau,blue,b,1,NA,NA,NA,3,10,46,b,1,0.49421437503769994,sub-29883729
NA,NA,NA,NA,NA,NA,NA,blau,blue,b,1,NA,NA,NA,3,11,47,b,1,0.5177175839198753,sub-29883729
NA,NA,NA,NA,NA,NA,NA,gelb,red,r,0,NA,NA,NA,4,0,48,r,1,0.6340397080639377,sub-29883729
NA,NA,NA,NA,NA,NA,NA,blau,yellow,g,0,NA,NA,NA,4,1,49,g,1,0.547195625025779,sub-29883729
NA,NA,NA,NA,NA,NA,NA,rot,blue,b,0,NA,NA,NA,4,2,50,b,1,0.6705593339866027,sub-29883729
NA,NA,NA,NA,NA,NA,NA,rot,yellow,g,0,NA,NA,NA,4,3,51,g,1,0.5738176250597462,sub-29883729
NA,NA,NA,NA,NA,NA,NA,blau,red,r,0,NA,NA,NA,4,4,52,b,0,0.407356166979298,sub-29883729
NA,NA,NA,NA,NA,NA,NA,gelb,yellow,g,1,NA,NA,NA,4,5,53,g,1,0.6440313330385834,sub-29883729
NA,NA,NA,NA,NA,NA,NA,gelb,blue,b,0,NA,NA,NA,4,6,54,b,1,0.427824208047241,sub-29883729
NA,NA,NA,NA,NA,NA,NA,rot,red,r,1,NA,NA,NA,4,7,55,r,1,0.44723108294419944,sub-29883729
NA,NA,NA,NA,NA,NA,NA,blau,blue,b,1,NA,NA,NA,4,8,56,b,1,0.618371499935165,sub-29883729
NA,NA,NA,NA,NA,NA,NA,gelb,yellow,g,1,NA,NA,NA,4,9,57,g,1,0.5901757089886814,sub-29883729
NA,NA,NA,NA,NA,NA,NA,blau,blue,b,1,NA,NA,NA,4,10,58,b,1,0.5168176670558751,sub-29883729
NA,NA,NA,NA,NA,NA,NA,rot,red,r,1,NA,NA,NA,4,11,59,r,1,0.37065279204398394,sub-29883729
NA,NA,NA,NA,NA,NA,NA,rot,red,r,1,NA,NA,NA,5,0,60,r,1,0.5600980409653857,sub-29883729
NA,NA,NA,NA,NA,NA,NA,blau,blue,b,1,NA,NA,NA,5,1,61,b,1,0.5130952500039712,sub-29883729
NA,NA,NA,NA,NA,NA,NA,blau,red,r,0,NA,NA,NA,5,2,62,r,1,0.42592704109847546,sub-29883729
NA,NA,NA,NA,NA,NA,NA,gelb,yellow,g,1,NA,NA,NA,5,3,63,g,1,0.5237717919517308,sub-29883729
NA,NA,NA,NA,NA,NA,NA,gelb,red,r,0,NA,NA,NA,5,4,64,r,1,0.7046952090458944,sub-29883729
NA,NA,NA,NA,NA,NA,NA,gelb,blue,b,0,NA,NA,NA,5,5,65,b,1,0.4765538750216365,sub-29883729
NA,NA,NA,NA,NA,NA,NA,blau,yellow,g,0,NA,NA,NA,5,6,66,g,1,0.6487767499638721,sub-29883729
NA,NA,NA,NA,NA,NA,NA,blau,blue,b,1,NA,NA,NA,5,7,67,b,1,0.5562788330717012,sub-29883729
NA,NA,NA,NA,NA,NA,NA,rot,yellow,g,0,NA,NA,NA,5,8,68,g,1,1.1242593330098316,sub-29883729
NA,NA,NA,NA,NA,NA,NA,rot,red,r,1,NA,NA,NA,5,9,69,r,1,0.4580896670231595,sub-29883729
NA,NA,NA,NA,NA,NA,NA,rot,blue,b,0,NA,NA,NA,5,10,70,b,1,0.5714644159888849,sub-29883729
NA,NA,NA,NA,NA,NA,NA,gelb,yellow,g,1,NA,NA,NA,5,11,71,g,1,0.484493791940622,sub-29883729
NA,NA,NA,NA,NA,NA,NA,gelb,yellow,g,1,NA,NA,NA,6,0,72,g,1,0.5935224590357393,sub-29883729
NA,NA,NA,NA,NA,NA,NA,rot,red,r,1,NA,NA,NA,6,1,73,r,1,0.4747827079845592,sub-29883729
NA,NA,NA,NA,NA,NA,NA,blau,yellow,g,0,NA,NA,NA,6,2,74,g,1,0.6032465000171214,sub-29883729
NA,NA,NA,NA,NA,NA,NA,blau,red,r,0,NA,NA,NA,6,3,75,r,1,0.8129184999270365,sub-29883729
NA,NA,NA,NA,NA,NA,NA,blau,blue,b,1,NA,NA,NA,6,4,76,b,1,0.6354145420482382,sub-29883729
NA,NA,NA,NA,NA,NA,NA,gelb,blue,b,0,NA,NA,NA,6,5,77,b,1,0.684955499949865,sub-29883729
NA,NA,NA,NA,NA,NA,NA,rot,red,r,1,NA,NA,NA,6,6,78,r,1,0.7901570840040222,sub-29883729
NA,NA,NA,NA,NA,NA,NA,gelb,red,r,0,NA,NA,NA,6,7,79,r,1,0.8247572500258684,sub-29883729
NA,NA,NA,NA,NA,NA,NA,rot,blue,b,0,NA,NA,NA,6,8,80,b,1,1.1136487500043586,sub-29883729
NA,NA,NA,NA,NA,NA,NA,rot,yellow,g,0,NA,NA,NA,6,9,81,g,1,1.0215698330430314,sub-29883729
NA,NA,NA,NA,NA,NA,NA,gelb,yellow,g,1,NA,NA,NA,6,10,82,g,1,0.5305011660093442,sub-29883729
NA,NA,NA,NA,NA,NA,NA,blau,blue,b,1,NA,NA,NA,6,11,83,b,1,0.5554156659636647,sub-29883729
NA,NA,NA,NA,NA,NA,NA,rot,red,r,1,NA,NA,NA,7,0,84,r,1,0.5086238329531625,sub-29883729
NA,NA,NA,NA,NA,NA,NA,gelb,yellow,g,1,NA,NA,NA,7,1,85,g,1,0.5565793749410659,sub-29883729
NA,NA,NA,NA,NA,NA,NA,gelb,blue,b,0,NA,NA,NA,7,2,86,b,1,0.8961915830150247,sub-29883729
NA,NA,NA,NA,NA,NA,NA,rot,yellow,g,0,NA,NA,NA,7,3,87,g,1,0.6798171249683946,sub-29883729
NA,NA,NA,NA,NA,NA,NA,gelb,yellow,g,1,NA,NA,NA,7,4,88,g,1,0.5288730410393327,sub-29883729
NA,NA,NA,NA,NA,NA,NA,rot,red,r,1,NA,NA,NA,7,5,89,r,1,0.6091229170560837,sub-29883729
NA,NA,NA,NA,NA,NA,NA,gelb,red,r,0,NA,NA,NA,7,6,90,r,1,0.3925050830002874,sub-29883729
NA,NA,NA,NA,NA,NA,NA,blau,blue,b,1,NA,NA,NA,7,7,91,b,1,0.49636808305513114,sub-29883729
NA,NA,NA,NA,NA,NA,NA,blau,blue,b,1,NA,NA,NA,7,8,92,b,1,0.7065773329231888,sub-29883729
NA,NA,NA,NA,NA,NA,NA,blau,yellow,g,0,NA,NA,NA,7,9,93,g,1,0.49875295895617455,sub-29883729
NA,NA,NA,NA,NA,NA,NA,rot,blue,b,0,NA,NA,NA,7,10,94,b,1,0.6585321249440312,sub-29883729
NA,NA,NA,NA,NA,NA,NA,blau,red,r,0,NA,NA,NA,7,11,95,r,1,0.41323083301540464,sub-29883729
NA,NA,NA,NA,NA,NA,NA,rot,blue,b,0,NA,NA,NA,8,0,96,b,1,0.5476397919701412,sub-29883729
NA,NA,NA,NA,NA,NA,NA,gelb,red,r,0,NA,NA,NA,8,1,97,r,1,0.5465024170698598,sub-29883729
NA,NA,NA,NA,NA,NA,NA,rot,yellow,g,0,NA,NA,NA,8,2,98,g,1,0.7030944579746574,sub-29883729
NA,NA,NA,NA,NA,NA,NA,gelb,yellow,g,1,NA,NA,NA,8,3,99,g,1,0.6946562079247087,sub-29883729
NA,NA,NA,NA,NA,NA,NA,rot,red,r,1,NA,NA,NA,8,4,100,r,1,0.5718289160868153,sub-29883729
NA,NA,NA,NA,NA,NA,NA,blau,blue,b,1,NA,NA,NA,8,5,101,b,1,0.4159549999749288,sub-29883729
NA,NA,NA,NA,NA,NA,NA,rot,red,r,1,NA,NA,NA,8,6,102,r,1,0.6025402919622138,sub-29883729
NA,NA,NA,NA,NA,NA,NA,blau,blue,b,1,NA,NA,NA,8,7,103,b,1,0.7067740419879556,sub-29883729
NA,NA,NA,NA,NA,NA,NA,blau,red,r,0,NA,NA,NA,8,8,104,r,1,0.760029541910626,sub-29883729
NA,NA,NA,NA,NA,NA,NA,blau,yellow,g,0,NA,NA,NA,8,9,105,g,1,0.6744139998918399,sub-29883729
NA,NA,NA,NA,NA,NA,NA,gelb,yellow,g,1,NA,NA,NA,8,10,106,g,1,0.5808702500071377,sub-29883729
NA,NA,NA,NA,NA,NA,NA,gelb,blue,b,0,NA,NA,NA,8,11,107,b,1,0.5664927499601617,sub-29883729
NA,NA,NA,NA,NA,NA,NA,blau,blue,b,1,NA,NA,NA,9,0,108,b,1,0.5264607080025598,sub-29883729
NA,NA,NA,NA,NA,NA,NA,gelb,red,r,0,NA,NA,NA,9,1,109,r,1,0.70668912504334,sub-29883729
NA,NA,NA,NA,NA,NA,NA,rot,blue,b,0,NA,NA,NA,9,2,110,b,1,0.5067312499741092,sub-29883729
NA,NA,NA,NA,NA,NA,NA,rot,yellow,g,0,NA,NA,NA,9,3,111,g,1,0.7145800000289455,sub-29883729
NA,NA,NA,NA,NA,NA,NA,blau,red,r,0,NA,NA,NA,9,4,112,r,1,0.7671023750444874,sub-29883729
NA,NA,NA,NA,NA,NA,NA,gelb,blue,b,0,NA,NA,NA,9,5,113,b,1,0.5956989169353619,sub-29883729
NA,NA,NA,NA,NA,NA,NA,rot,red,r,1,NA,NA,NA,9,6,114,r,1,0.465488791000098,sub-29883729
NA,NA,NA,NA,NA,NA,NA,gelb,yellow,g,1,NA,NA,NA,9,7,115,g,1,0.43549087503924966,sub-29883729
NA,NA,NA,NA,NA,NA,NA,blau,yellow,g,0,NA,NA,NA,9,8,116,g,1,0.4986621669959277,sub-29883729
NA,NA,NA,NA,NA,NA,NA,blau,blue,b,1,NA,NA,NA,9,9,117,b,1,0.5784058750141412,sub-29883729
NA,NA,NA,NA,NA,NA,NA,rot,red,r,1,NA,NA,NA,9,10,118,r,1,0.5317924580303952,sub-29883729
NA,NA,NA,NA,NA,NA,NA,gelb,yellow,g,1,NA,NA,NA,9,11,119,g,1,0.4081984160002321,sub-29883729
NA,NA,NA,NA,NA,NA,NA,NA,NA,NA,NA,NA,NA,NA,NA,NA,NA,NA,NA,NA,sub-29883729
