wordCTK,colorCTK,corrAnsCTK,congruentCTK,wordPractice,colorPractice,congruentPractice,word,color,corrAns,congruent,trials_practice.thisRepN,trials_practice.thisTrialN,trials_practice.thisN,trials_test.thisRepN,trials_test.thisTrialN,trials_test.thisN,keyResp_test_run.keys,keyResp_test_run.corr,keyResp_test_run.rt,participant
NA,NA,NA,NA,NA,NA,NA,NA,NA,NA,NA,NA,NA,NA,NA,NA,NA,NA,NA,NA,sub-45023381
NA,NA,NA,NA,NA,NA,NA,NA,NA,NA,NA,NA,NA,NA,NA,NA,NA,NA,NA,NA,sub-45023381
test,yellow,g,1,NA,NA,NA,NA,NA,NA,NA,NA,NA,NA,NA,NA,NA,NA,NA,NA,sub-45023381
test,red,r,1,NA,NA,NA,NA,NA,NA,NA,NA,NA,NA,NA,NA,NA,NA,NA,NA,sub-45023381
test,blue,b,1,NA,NA,NA,NA,NA,NA,NA,NA,NA,NA,NA,NA,NA,NA,NA,NA,sub-45023381
test,red,r,1,NA,NA,NA,NA,NA,NA,NA,NA,NA,NA,NA,NA,NA,NA,NA,NA,sub-45023381
test,blue,b,1,NA,NA,NA,NA,NA,NA,NA,NA,NA,NA,NA,NA,NA,NA,NA,NA,sub-45023381
test,yellow,g,1,NA,NA,NA,NA,NA,NA,NA,NA,NA,NA,NA,NA,NA,NA,NA,NA,sub-45023381
test,red,r,1,NA,NA,NA,NA,NA,NA,NA,NA,NA,NA,NA,NA,NA,NA,NA,NA,sub-45023381
test,yellow,g,1,NA,NA,NA,NA,NA,NA,NA,NA,NA,NA,NA,NA,NA,NA,NA,NA,sub-45023381
test,blue,b,1,NA,NA,NA,NA,NA,NA,NA,NA,NA,NA,NA,NA,NA,NA,NA,NA,sub-45023381
test,yellow,g,1,NA,NA,NA,NA,NA,NA,NA,NA,NA,NA,NA,NA,NA,NA,NA,NA,sub-45023381
test,blue,b,1,NA,NA,NA,NA,NA,NA,NA,NA,NA,NA,NA,NA,NA,NA,NA,NA,sub-45023381
test,red,r,1,NA,NA,NA,NA,NA,NA,NA,NA,NA,NA,NA,NA,NA,NA,NA,NA,sub-45023381
NA,NA,NA,NA,NA,NA,NA,NA,NA,NA,NA,NA,NA,NA,NA,NA,NA,NA,NA,NA,sub-45023381
NA,NA,NA,NA,gelb,yellow,1,NA,NA,NA,NA,0,0,0,NA,NA,NA,NA,NA,NA,sub-45023381
NA,NA,NA,NA,blau,blue,1,NA,NA,NA,NA,0,1,1,NA,NA,NA,NA,NA,NA,sub-45023381
NA,NA,NA,NA,gelb,red,0,NA,NA,NA,NA,0,2,2,NA,NA,NA,NA,NA,NA,sub-45023381
NA,NA,NA,NA,blau,red,0,NA,NA,NA,NA,0,3,3,NA,NA,NA,NA,NA,NA,sub-45023381
NA,NA,NA,NA,gelb,yellow,1,NA,NA,NA,NA,0,4,4,NA,NA,NA,NA,NA,NA,sub-45023381
NA,NA,NA,NA,rot,yellow,0,NA,NA,NA,NA,0,5,5,NA,NA,NA,NA,NA,NA,sub-45023381
NA,NA,NA,NA,gelb,blue,0,NA,NA,NA,NA,0,6,6,NA,NA,NA,NA,NA,NA,sub-45023381
NA,NA,NA,NA,rot,blue,0,NA,NA,NA,NA,0,7,7,NA,NA,NA,NA,NA,NA,sub-45023381
NA,NA,NA,NA,rot,red,1,NA,NA,NA,NA,0,8,8,NA,NA,NA,NA,NA,NA,sub-45023381
NA,NA,NA,NA,rot,red,1,NA,NA,NA,NA,0,9,9,NA,NA,NA,NA,NA,NA,sub-45023381
NA,NA,NA,NA,blau,yellow,0,NA,NA,NA,NA,0,10,10,NA,NA,NA,NA,NA,NA,sub-45023381
NA,NA,NA,NA,blau,blue,1,NA,NA,NA,NA,0,11,11,NA,NA,NA,NA,NA,NA,sub-45023381
NA,NA,NA,NA,gelb,red,0,NA,NA,NA,NA,1,0,12,NA,NA,NA,NA,NA,NA,sub-45023381
NA,NA,NA,NA,gelb,yellow,1,NA,NA,NA,NA,1,1,13,NA,NA,NA,NA,NA,NA,sub-45023381
NA,NA,NA,NA,rot,yellow,0,NA,NA,NA,NA,1,2,14,NA,NA,NA,NA,NA,NA,sub-45023381
NA,NA,NA,NA,blau,blue,1,NA,NA,NA,NA,1,3,15,NA,NA,NA,NA,NA,NA,sub-45023381
NA,NA,NA,NA,rot,blue,0,NA,NA,NA,NA,1,4,16,NA,NA,NA,NA,NA,NA,sub-45023381
NA,NA,NA,NA,blau,yellow,0,NA,NA,NA,NA,1,5,17,NA,NA,NA,NA,NA,NA,sub-45023381
NA,NA,NA,NA,gelb,yellow,1,NA,NA,NA,NA,1,6,18,NA,NA,NA,NA,NA,NA,sub-45023381
NA,NA,NA,NA,gelb,blue,0,NA,NA,NA,NA,1,7,19,NA,NA,NA,NA,NA,NA,sub-45023381
NA,NA,NA,NA,rot,red,1,NA,NA,NA,NA,1,8,20,NA,NA,NA,NA,NA,NA,sub-45023381
NA,NA,NA,NA,rot,red,1,NA,NA,NA,NA,1,9,21,NA,NA,NA,NA,NA,NA,sub-45023381
NA,NA,NA,NA,blau,blue,1,NA,NA,NA,NA,1,10,22,NA,NA,NA,NA,NA,NA,sub-45023381
NA,NA,NA,NA,blau,red,0,NA,NA,NA,NA,1,11,23,NA,NA,NA,NA,NA,NA,sub-45023381
NA,NA,NA,NA,NA,NA,NA,NA,NA,NA,NA,NA,NA,NA,NA,NA,NA,NA,NA,NA,sub-45023381
NA,NA,NA,NA,NA,NA,NA,gelb,yellow,g,1,NA,NA,NA,0,0,0,g,1,0.8676430800114758,sub-45023381
NA,NA,NA,NA,NA,NA,NA,gelb,yellow,g,1,NA,NA,NA,0,1,1,g,1,1.203567304997705,sub-45023381
NA,NA,NA,NA,NA,NA,NA,blau,blue,b,1,NA,NA,NA,0,2,2,b,1,2.2551597479905467,sub-45023381
NA,NA,NA,NA,NA,NA,NA,blau,blue,b,1,NA,NA,NA,0,3,3,b,1,1.2177325040102005,sub-45023381
NA,NA,NA,NA,NA,NA,NA,rot,blue,b,0,NA,NA,NA,0,4,4,r,0,2.043397369008744,sub-45023381
NA,NA,NA,NA,NA,NA,NA,rot,yellow,g,0,NA,NA,NA,0,5,5,g,1,2.287275051989127,sub-45023381
NA,NA,NA,NA,NA,NA,NA,blau,red,r,0,NA,NA,NA,0,6,6,r,1,1.1571513609960675,sub-45023381
NA,NA,NA,NA,NA,NA,NA,rot,red,r,1,NA,NA,NA,0,7,7,r,1,1.1410429539973848,sub-45023381
NA,NA,NA,NA,NA,NA,NA,gelb,blue,b,0,NA,NA,NA,0,8,8,g,0,1.8346453139965888,sub-45023381
NA,NA,NA,NA,NA,NA,NA,blau,yellow,g,0,NA,NA,NA,0,9,9,g,1,2.253829525987385,sub-45023381
NA,NA,NA,NA,NA,NA,NA,gelb,red,r,0,NA,NA,NA,0,10,10,r,1,2.351923740992788,sub-45023381
NA,NA,NA,NA,NA,NA,NA,rot,red,r,1,NA,NA,NA,0,11,11,r,1,1.4497767300053963,sub-45023381
NA,NA,NA,NA,NA,NA,NA,rot,red,r,1,NA,NA,NA,1,0,12,r,1,1.4369004869950004,sub-45023381
NA,NA,NA,NA,NA,NA,NA,gelb,yellow,g,1,NA,NA,NA,1,1,13,g,1,1.3530896849988494,sub-45023381
NA,NA,NA,NA,NA,NA,NA,rot,red,r,1,NA,NA,NA,1,2,14,r,1,1.357089575001737,sub-45023381
NA,NA,NA,NA,NA,NA,NA,blau,blue,b,1,NA,NA,NA,1,3,15,b,1,1.0404941529850475,sub-45023381
NA,NA,NA,NA,NA,NA,NA,gelb,yellow,g,1,NA,NA,NA,1,4,16,g,1,0.9054757569974754,sub-45023381
NA,NA,NA,NA,NA,NA,NA,blau,yellow,g,0,NA,NA,NA,1,5,17,g,1,1.376210321992403,sub-45023381
NA,NA,NA,NA,NA,NA,NA,blau,blue,b,1,NA,NA,NA,1,6,18,b,1,0.7392792209866457,sub-45023381
NA,NA,NA,NA,NA,NA,NA,gelb,blue,b,0,NA,NA,NA,1,7,19,b,1,1.9412776170065629,sub-45023381
NA,NA,NA,NA,NA,NA,NA,rot,yellow,g,0,NA,NA,NA,1,8,20,g,1,1.140613752999343,sub-45023381
NA,NA,NA,NA,NA,NA,NA,gelb,red,r,0,NA,NA,NA,1,9,21,g,0,2.0885155870055314,sub-45023381
NA,NA,NA,NA,NA,NA,NA,rot,blue,b,0,NA,NA,NA,1,10,22,b,1,2.0683628230181057,sub-45023381
NA,NA,NA,NA,NA,NA,NA,blau,red,r,0,NA,NA,NA,1,11,23,b,0,1.8720488320104776,sub-45023381
NA,NA,NA,NA,NA,NA,NA,gelb,red,r,0,NA,NA,NA,2,0,24,r,1,1.450356571993325,sub-45023381
NA,NA,NA,NA,NA,NA,NA,gelb,yellow,g,1,NA,NA,NA,2,1,25,g,1,1.2934947840112727,sub-45023381
NA,NA,NA,NA,NA,NA,NA,blau,blue,b,1,NA,NA,NA,2,2,26,b,1,1.4490818489866797,sub-45023381
NA,NA,NA,NA,NA,NA,NA,blau,yellow,g,0,NA,NA,NA,2,3,27,g,1,2.2199729629792273,sub-45023381
NA,NA,NA,NA,NA,NA,NA,gelb,yellow,g,1,NA,NA,NA,2,4,28,g,1,0.9605070719844662,sub-45023381
NA,NA,NA,NA,NA,NA,NA,blau,red,r,0,NA,NA,NA,2,5,29,b,0,1.6315276319801342,sub-45023381
NA,NA,NA,NA,NA,NA,NA,rot,blue,b,0,NA,NA,NA,2,6,30,b,1,1.6644865119887982,sub-45023381
NA,NA,NA,NA,NA,NA,NA,blau,blue,b,1,NA,NA,NA,2,7,31,b,1,1.066984911012696,sub-45023381
NA,NA,NA,NA,NA,NA,NA,rot,yellow,g,0,NA,NA,NA,2,8,32,g,1,1.3231991309730802,sub-45023381
NA,NA,NA,NA,NA,NA,NA,rot,red,r,1,NA,NA,NA,2,9,33,r,1,1.3137715850025415,sub-45023381
NA,NA,NA,NA,NA,NA,NA,rot,red,r,1,NA,NA,NA,2,10,34,r,1,1.053932064009132,sub-45023381
NA,NA,NA,NA,NA,NA,NA,gelb,blue,b,0,NA,NA,NA,2,11,35,b,1,1.0776175840001088,sub-45023381
NA,NA,NA,NA,NA,NA,NA,blau,red,r,0,NA,NA,NA,3,0,36,r,1,1.2414637800247874,sub-45023381
NA,NA,NA,NA,NA,NA,NA,rot,blue,b,0,NA,NA,NA,3,1,37,b,1,1.30722734000301,sub-45023381
NA,NA,NA,NA,NA,NA,NA,gelb,yellow,g,1,NA,NA,NA,3,2,38,g,1,0.8258461439982057,sub-45023381
NA,NA,NA,NA,NA,NA,NA,blau,blue,b,1,NA,NA,NA,3,3,39,b,1,1.6280398019880522,sub-45023381
NA,NA,NA,NA,NA,NA,NA,gelb,yellow,g,1,NA,NA,NA,3,4,40,g,1,1.213344674994005,sub-45023381
NA,NA,NA,NA,NA,NA,NA,gelb,red,r,0,NA,NA,NA,3,5,41,r,1,2.811872346996097,sub-45023381
NA,NA,NA,NA,NA,NA,NA,blau,yellow,g,0,NA,NA,NA,3,6,42,b,0,1.5920895710005425,sub-45023381
NA,NA,NA,NA,NA,NA,NA,rot,yellow,g,0,NA,NA,NA,3,7,43,g,1,3.516153689008206,sub-45023381
NA,NA,NA,NA,NA,NA,NA,rot,red,r,1,NA,NA,NA,3,8,44,r,1,1.2162858030060306,sub-45023381
NA,NA,NA,NA,NA,NA,NA,gelb,blue,b,0,NA,NA,NA,3,9,45,b,1,1.3802483939798549,sub-45023381
NA,NA,NA,NA,NA,NA,NA,blau,blue,b,1,NA,NA,NA,3,10,46,b,1,1.153162420989247,sub-45023381
NA,NA,NA,NA,NA,NA,NA,rot,red,r,1,NA,NA,NA,3,11,47,r,1,1.680239001987502,sub-45023381
NA,NA,NA,NA,NA,NA,NA,blau,red,r,0,NA,NA,NA,4,0,48,r,1,2.327087820012821,sub-45023381
NA,NA,NA,NA,NA,NA,NA,rot,red,r,1,NA,NA,NA,4,1,49,r,1,0.8350942969846074,sub-45023381
NA,NA,NA,NA,NA,NA,NA,rot,yellow,g,0,NA,NA,NA,4,2,50,g,1,1.0307903539796823,sub-45023381
NA,NA,NA,NA,NA,NA,NA,gelb,yellow,g,1,NA,NA,NA,4,3,51,g,1,1.1090955450199544,sub-45023381
NA,NA,NA,NA,NA,NA,NA,blau,yellow,g,0,NA,NA,NA,4,4,52,b,0,0.8448318330047186,sub-45023381
NA,NA,NA,NA,NA,NA,NA,rot,blue,b,0,NA,NA,NA,4,5,53,b,1,1.7263000560051296,sub-45023381
NA,NA,NA,NA,NA,NA,NA,rot,red,r,1,NA,NA,NA,4,6,54,r,1,0.8887612720136531,sub-45023381
NA,NA,NA,NA,NA,NA,NA,gelb,blue,b,0,NA,NA,NA,4,7,55,g,0,1.989731962006772,sub-45023381
NA,NA,NA,NA,NA,NA,NA,blau,blue,b,1,NA,NA,NA,4,8,56,b,1,0.9062858350225724,sub-45023381
NA,NA,NA,NA,NA,NA,NA,gelb,red,r,0,NA,NA,NA,4,9,57,r,1,2.1440485840139445,sub-45023381
NA,NA,NA,NA,NA,NA,NA,gelb,yellow,g,1,NA,NA,NA,4,10,58,g,1,1.8128801189886872,sub-45023381
NA,NA,NA,NA,NA,NA,NA,blau,blue,b,1,NA,NA,NA,4,11,59,b,1,0.9850009020010476,sub-45023381
NA,NA,NA,NA,NA,NA,NA,blau,yellow,g,0,NA,NA,NA,5,0,60,g,1,1.990183766989503,sub-45023381
NA,NA,NA,NA,NA,NA,NA,gelb,yellow,g,1,NA,NA,NA,5,1,61,g,1,0.8267650699999649,sub-45023381
NA,NA,NA,NA,NA,NA,NA,blau,blue,b,1,NA,NA,NA,5,2,62,b,1,1.1212153239757754,sub-45023381
NA,NA,NA,NA,NA,NA,NA,gelb,yellow,g,1,NA,NA,NA,5,3,63,g,1,1.4504350060014986,sub-45023381
NA,NA,NA,NA,NA,NA,NA,rot,red,r,1,NA,NA,NA,5,4,64,r,1,1.1837523500144016,sub-45023381
NA,NA,NA,NA,NA,NA,NA,rot,red,r,1,NA,NA,NA,5,5,65,r,1,0.90187943901401,sub-45023381
NA,NA,NA,NA,NA,NA,NA,gelb,red,r,0,NA,NA,NA,5,6,66,g,0,2.0704155400162563,sub-45023381
NA,NA,NA,NA,NA,NA,NA,rot,blue,b,0,NA,NA,NA,5,7,67,b,1,0.7938253269821871,sub-45023381
NA,NA,NA,NA,NA,NA,NA,blau,blue,b,1,NA,NA,NA,5,8,68,b,1,0.8913611250172835,sub-45023381
NA,NA,NA,NA,NA,NA,NA,blau,red,r,0,NA,NA,NA,5,9,69,r,1,2.380973471998004,sub-45023381
NA,NA,NA,NA,NA,NA,NA,gelb,blue,b,0,NA,NA,NA,5,10,70,g,0,0.9442331890168134,sub-45023381
NA,NA,NA,NA,NA,NA,NA,rot,yellow,g,0,NA,NA,NA,5,11,71,g,1,1.4825229769921862,sub-45023381
NA,NA,NA,NA,NA,NA,NA,blau,blue,b,1,NA,NA,NA,6,0,72,b,1,0.943426890007686,sub-45023381
NA,NA,NA,NA,NA,NA,NA,rot,red,r,1,NA,NA,NA,6,1,73,r,1,0.9576524950098246,sub-45023381
NA,NA,NA,NA,NA,NA,NA,blau,blue,b,1,NA,NA,NA,6,2,74,b,1,1.1206515659869185,sub-45023381
NA,NA,NA,NA,NA,NA,NA,blau,red,r,0,NA,NA,NA,6,3,75,r,1,2.921259919006843,sub-45023381
NA,NA,NA,NA,NA,NA,NA,rot,red,r,1,NA,NA,NA,6,4,76,r,1,1.1103067540097982,sub-45023381
NA,NA,NA,NA,NA,NA,NA,gelb,yellow,g,1,NA,NA,NA,6,5,77,g,1,2.058114271989325,sub-45023381
NA,NA,NA,NA,NA,NA,NA,rot,yellow,g,0,NA,NA,NA,6,6,78,g,1,3.372847779013682,sub-45023381
NA,NA,NA,NA,NA,NA,NA,gelb,red,r,0,NA,NA,NA,6,7,79,r,1,1.2027092670032289,sub-45023381
NA,NA,NA,NA,NA,NA,NA,gelb,yellow,g,1,NA,NA,NA,6,8,80,g,1,1.0939124609867577,sub-45023381
NA,NA,NA,NA,NA,NA,NA,gelb,blue,b,0,NA,NA,NA,6,9,81,b,1,1.983206864009844,sub-45023381
NA,NA,NA,NA,NA,NA,NA,rot,blue,b,0,NA,NA,NA,6,10,82,r,0,1.7349813290056773,sub-45023381
NA,NA,NA,NA,NA,NA,NA,blau,yellow,g,0,NA,NA,NA,6,11,83,g,1,0.6179136050050147,sub-45023381
NA,NA,NA,NA,NA,NA,NA,rot,yellow,g,0,NA,NA,NA,7,0,84,g,1,1.1195381570141762,sub-45023381
NA,NA,NA,NA,NA,NA,NA,blau,blue,b,1,NA,NA,NA,7,1,85,b,1,1.4805876509926748,sub-45023381
NA,NA,NA,NA,NA,NA,NA,blau,red,r,0,NA,NA,NA,7,2,86,r,1,1.237917883991031,sub-45023381
NA,NA,NA,NA,NA,NA,NA,gelb,blue,b,0,NA,NA,NA,7,3,87,b,1,1.374312016996555,sub-45023381
NA,NA,NA,NA,NA,NA,NA,gelb,red,r,0,NA,NA,NA,7,4,88,g,0,1.1120169089990668,sub-45023381
NA,NA,NA,NA,NA,NA,NA,rot,blue,b,0,NA,NA,NA,7,5,89,b,1,1.338784085994121,sub-45023381
NA,NA,NA,NA,NA,NA,NA,rot,red,r,1,NA,NA,NA,7,6,90,r,1,1.7530757949862164,sub-45023381
NA,NA,NA,NA,NA,NA,NA,rot,red,r,1,NA,NA,NA,7,7,91,r,1,1.3664567630039528,sub-45023381
NA,NA,NA,NA,NA,NA,NA,blau,blue,b,1,NA,NA,NA,7,8,92,b,1,1.0384718809800688,sub-45023381
NA,NA,NA,NA,NA,NA,NA,gelb,yellow,g,1,NA,NA,NA,7,9,93,g,1,1.112434470007429,sub-45023381
NA,NA,NA,NA,NA,NA,NA,gelb,yellow,g,1,NA,NA,NA,7,10,94,g,1,0.9980967429874,sub-45023381
NA,NA,NA,NA,NA,NA,NA,blau,yellow,g,0,NA,NA,NA,7,11,95,g,1,2.6945023340231273,sub-45023381
NA,NA,NA,NA,NA,NA,NA,blau,yellow,g,0,NA,NA,NA,8,0,96,b,0,1.2590512770111673,sub-45023381
NA,NA,NA,NA,NA,NA,NA,rot,yellow,g,0,NA,NA,NA,8,1,97,g,1,1.5114171029999852,sub-45023381
NA,NA,NA,NA,NA,NA,NA,blau,blue,b,1,NA,NA,NA,8,2,98,b,1,0.885197549010627,sub-45023381
NA,NA,NA,NA,NA,NA,NA,gelb,yellow,g,1,NA,NA,NA,8,3,99,g,1,1.1061509999854024,sub-45023381
NA,NA,NA,NA,NA,NA,NA,rot,red,r,1,NA,NA,NA,8,4,100,r,1,1.7489276090054773,sub-45023381
NA,NA,NA,NA,NA,NA,NA,blau,red,r,0,NA,NA,NA,8,5,101,r,1,2.1283199489989784,sub-45023381
NA,NA,NA,NA,NA,NA,NA,gelb,red,r,0,NA,NA,NA,8,6,102,g,0,1.339713766996283,sub-45023381
NA,NA,NA,NA,NA,NA,NA,rot,red,r,1,NA,NA,NA,8,7,103,r,1,1.3070421520096716,sub-45023381
NA,NA,NA,NA,NA,NA,NA,blau,blue,b,1,NA,NA,NA,8,8,104,b,1,0.9606038919882848,sub-45023381
NA,NA,NA,NA,NA,NA,NA,gelb,blue,b,0,NA,NA,NA,8,9,105,b,1,1.6419027079828084,sub-45023381
NA,NA,NA,NA,NA,NA,NA,gelb,yellow,g,1,NA,NA,NA,8,10,106,g,1,1.025495501991827,sub-45023381
NA,NA,NA,NA,NA,NA,NA,rot,blue,b,0,NA,NA,NA,8,11,107,b,1,3.3876744149893057,sub-45023381
NA,NA,NA,NA,NA,NA,NA,gelb,red,r,0,NA,NA,NA,9,0,108,r,1,1.753300271986518,sub-45023381
NA,NA,NA,NA,NA,NA,NA,blau,yellow,g,0,NA,NA,NA,9,1,109,g,1,1.2340644450159743,sub-45023381
NA,NA,NA,NA,NA,NA,NA,rot,red,r,1,NA,NA,NA,9,2,110,r,1,1.0095962950144894,sub-45023381
NA,NA,NA,NA,NA,NA,NA,gelb,yellow,g,1,NA,NA,NA,9,3,111,g,1,0.6738929760176688,sub-45023381
NA,NA,NA,NA,NA,NA,NA,blau,red,r,0,NA,NA,NA,9,4,112,r,1,1.6478039709909351,sub-45023381
NA,NA,NA,NA,NA,NA,NA,gelb,yellow,g,1,NA,NA,NA,9,5,113,g,1,0.8818810049851891,sub-45023381
NA,NA,NA,NA,NA,NA,NA,blau,blue,b,1,NA,NA,NA,9,6,114,b,1,0.7161710909858812,sub-45023381
NA,NA,NA,NA,NA,NA,NA,rot,red,r,1,NA,NA,NA,9,7,115,r,1,0.6033200990059413,sub-45023381
NA,NA,NA,NA,NA,NA,NA,gelb,blue,b,0,NA,NA,NA,9,8,116,g,0,1.6362250760139432,sub-45023381
NA,NA,NA,NA,NA,NA,NA,rot,yellow,g,0,NA,NA,NA,9,9,117,g,1,1.8212787020020187,sub-45023381
NA,NA,NA,NA,NA,NA,NA,blau,blue,b,1,NA,NA,NA,9,10,118,b,1,0.9716803549963516,sub-45023381
NA,NA,NA,NA,NA,NA,NA,rot,blue,b,0,NA,NA,NA,9,11,119,b,1,1.7916257500182835,sub-45023381
NA,NA,NA,NA,NA,NA,NA,NA,NA,NA,NA,NA,NA,NA,NA,NA,NA,NA,NA,NA,sub-45023381
