wordCTK,colorCTK,corrAnsCTK,congruentCTK,wordPractice,colorPractice,congruentPractice,word,color,corrAns,congruent,trials_practice.thisRepN,trials_practice.thisTrialN,trials_practice.thisN,trials_test.thisRepN,trials_test.thisTrialN,trials_test.thisN,keyResp_test_run.keys,keyResp_test_run.corr,keyResp_test_run.rt,participant
NA,NA,NA,NA,NA,NA,NA,NA,NA,NA,NA,NA,NA,NA,NA,NA,NA,NA,NA,NA,sub-92751997
NA,NA,NA,NA,NA,NA,NA,NA,NA,NA,NA,NA,NA,NA,NA,NA,NA,NA,NA,NA,sub-92751997
test,yellow,g,1,NA,NA,NA,NA,NA,NA,NA,NA,NA,NA,NA,NA,NA,NA,NA,NA,sub-92751997
test,red,r,1,NA,NA,NA,NA,NA,NA,NA,NA,NA,NA,NA,NA,NA,NA,NA,NA,sub-92751997
test,blue,b,1,NA,NA,NA,NA,NA,NA,NA,NA,NA,NA,NA,NA,NA,NA,NA,NA,sub-92751997
test,blue,b,1,NA,NA,NA,NA,NA,NA,NA,NA,NA,NA,NA,NA,NA,NA,NA,NA,sub-92751997
test,yellow,g,1,NA,NA,NA,NA,NA,NA,NA,NA,NA,NA,NA,NA,NA,NA,NA,NA,sub-92751997
test,red,r,1,NA,NA,NA,NA,NA,NA,NA,NA,NA,NA,NA,NA,NA,NA,NA,NA,sub-92751997
test,blue,b,1,NA,NA,NA,NA,NA,NA,NA,NA,NA,NA,NA,NA,NA,NA,NA,NA,sub-92751997
test,red,r,1,NA,NA,NA,NA,NA,NA,NA,NA,NA,NA,NA,NA,NA,NA,NA,NA,sub-92751997
test,yellow,g,1,NA,NA,NA,NA,NA,NA,NA,NA,NA,NA,NA,NA,NA,NA,NA,NA,sub-92751997
test,yellow,g,1,NA,NA,NA,NA,NA,NA,NA,NA,NA,NA,NA,NA,NA,NA,NA,NA,sub-92751997
test,blue,b,1,NA,NA,NA,NA,NA,NA,NA,NA,NA,NA,NA,NA,NA,NA,NA,NA,sub-92751997
test,red,r,1,NA,NA,NA,NA,NA,NA,NA,NA,NA,NA,NA,NA,NA,NA,NA,NA,sub-92751997
NA,NA,NA,NA,NA,NA,NA,NA,NA,NA,NA,NA,NA,NA,NA,NA,NA,NA,NA,NA,sub-92751997
NA,NA,NA,NA,rot,red,1,NA,NA,NA,NA,0,0,0,NA,NA,NA,NA,NA,NA,sub-92751997
NA,NA,NA,NA,gelb,yellow,1,NA,NA,NA,NA,0,1,1,NA,NA,NA,NA,NA,NA,sub-92751997
NA,NA,NA,NA,blau,blue,1,NA,NA,NA,NA,0,2,2,NA,NA,NA,NA,NA,NA,sub-92751997
NA,NA,NA,NA,blau,yellow,0,NA,NA,NA,NA,0,3,3,NA,NA,NA,NA,NA,NA,sub-92751997
NA,NA,NA,NA,rot,red,1,NA,NA,NA,NA,0,4,4,NA,NA,NA,NA,NA,NA,sub-92751997
NA,NA,NA,NA,gelb,blue,0,NA,NA,NA,NA,0,5,5,NA,NA,NA,NA,NA,NA,sub-92751997
NA,NA,NA,NA,rot,blue,0,NA,NA,NA,NA,0,6,6,NA,NA,NA,NA,NA,NA,sub-92751997
NA,NA,NA,NA,blau,red,0,NA,NA,NA,NA,0,7,7,NA,NA,NA,NA,NA,NA,sub-92751997
NA,NA,NA,NA,gelb,red,0,NA,NA,NA,NA,0,8,8,NA,NA,NA,NA,NA,NA,sub-92751997
NA,NA,NA,NA,gelb,yellow,1,NA,NA,NA,NA,0,9,9,NA,NA,NA,NA,NA,NA,sub-92751997
NA,NA,NA,NA,rot,yellow,0,NA,NA,NA,NA,0,10,10,NA,NA,NA,NA,NA,NA,sub-92751997
NA,NA,NA,NA,blau,blue,1,NA,NA,NA,NA,0,11,11,NA,NA,NA,NA,NA,NA,sub-92751997
NA,NA,NA,NA,gelb,blue,0,NA,NA,NA,NA,1,0,12,NA,NA,NA,NA,NA,NA,sub-92751997
NA,NA,NA,NA,blau,blue,1,NA,NA,NA,NA,1,1,13,NA,NA,NA,NA,NA,NA,sub-92751997
NA,NA,NA,NA,rot,yellow,0,NA,NA,NA,NA,1,2,14,NA,NA,NA,NA,NA,NA,sub-92751997
NA,NA,NA,NA,blau,red,0,NA,NA,NA,NA,1,3,15,NA,NA,NA,NA,NA,NA,sub-92751997
NA,NA,NA,NA,rot,red,1,NA,NA,NA,NA,1,4,16,NA,NA,NA,NA,NA,NA,sub-92751997
NA,NA,NA,NA,rot,red,1,NA,NA,NA,NA,1,5,17,NA,NA,NA,NA,NA,NA,sub-92751997
NA,NA,NA,NA,gelb,red,0,NA,NA,NA,NA,1,6,18,NA,NA,NA,NA,NA,NA,sub-92751997
NA,NA,NA,NA,blau,yellow,0,NA,NA,NA,NA,1,7,19,NA,NA,NA,NA,NA,NA,sub-92751997
NA,NA,NA,NA,gelb,yellow,1,NA,NA,NA,NA,1,8,20,NA,NA,NA,NA,NA,NA,sub-92751997
NA,NA,NA,NA,rot,blue,0,NA,NA,NA,NA,1,9,21,NA,NA,NA,NA,NA,NA,sub-92751997
NA,NA,NA,NA,blau,blue,1,NA,NA,NA,NA,1,10,22,NA,NA,NA,NA,NA,NA,sub-92751997
NA,NA,NA,NA,gelb,yellow,1,NA,NA,NA,NA,1,11,23,NA,NA,NA,NA,NA,NA,sub-92751997
NA,NA,NA,NA,NA,NA,NA,NA,NA,NA,NA,NA,NA,NA,NA,NA,NA,NA,NA,NA,sub-92751997
NA,NA,NA,NA,NA,NA,NA,blau,yellow,g,0,NA,NA,NA,0,0,0,g,1,1.4928800890000389,sub-92751997
NA,NA,NA,NA,NA,NA,NA,blau,blue,b,1,NA,NA,NA,0,1,1,b,1,0.945535742000004,sub-92751997
NA,NA,NA,NA,NA,NA,NA,rot,red,r,1,NA,NA,NA,0,2,2,r,1,0.4850045150000142,sub-92751997
NA,NA,NA,NA,NA,NA,NA,blau,blue,b,1,NA,NA,NA,0,3,3,b,1,0.7526094760000319,sub-92751997
NA,NA,NA,NA,NA,NA,NA,gelb,yellow,g,1,NA,NA,NA,0,4,4,g,1,0.5868608459999791,sub-92751997
NA,NA,NA,NA,NA,NA,NA,rot,red,r,1,NA,NA,NA,0,5,5,r,1,0.4669452509999701,sub-92751997
NA,NA,NA,NA,NA,NA,NA,rot,blue,b,0,NA,NA,NA,0,6,6,b,1,0.6038849660000096,sub-92751997
NA,NA,NA,NA,NA,NA,NA,rot,yellow,g,0,NA,NA,NA,0,7,7,g,1,0.5123943049999866,sub-92751997
NA,NA,NA,NA,NA,NA,NA,blau,red,r,0,NA,NA,NA,0,8,8,r,1,0.6689867320000076,sub-92751997
NA,NA,NA,NA,NA,NA,NA,gelb,blue,b,0,NA,NA,NA,0,9,9,b,1,0.7102135890000341,sub-92751997
NA,NA,NA,NA,NA,NA,NA,gelb,red,r,0,NA,NA,NA,0,10,10,r,1,0.6166487489999781,sub-92751997
NA,NA,NA,NA,NA,NA,NA,gelb,yellow,g,1,NA,NA,NA,0,11,11,g,1,0.42001708300000473,sub-92751997
NA,NA,NA,NA,NA,NA,NA,rot,yellow,g,0,NA,NA,NA,1,0,12,g,1,0.8286046070000452,sub-92751997
NA,NA,NA,NA,NA,NA,NA,rot,blue,b,0,NA,NA,NA,1,1,13,r,0,0.7667534740000406,sub-92751997
NA,NA,NA,NA,NA,NA,NA,rot,red,r,1,NA,NA,NA,1,2,14,r,1,0.6849209659999929,sub-92751997
NA,NA,NA,NA,NA,NA,NA,blau,blue,b,1,NA,NA,NA,1,3,15,b,1,0.7116611499999976,sub-92751997
NA,NA,NA,NA,NA,NA,NA,blau,blue,b,1,NA,NA,NA,1,4,16,b,1,0.7081378709999626,sub-92751997
NA,NA,NA,NA,NA,NA,NA,blau,yellow,g,0,NA,NA,NA,1,5,17,g,1,0.818046349000042,sub-92751997
NA,NA,NA,NA,NA,NA,NA,rot,red,r,1,NA,NA,NA,1,6,18,r,1,0.6791948759999968,sub-92751997
NA,NA,NA,NA,NA,NA,NA,gelb,yellow,g,1,NA,NA,NA,1,7,19,g,1,0.5579125379999823,sub-92751997
NA,NA,NA,NA,NA,NA,NA,gelb,blue,b,0,NA,NA,NA,1,8,20,b,1,0.779572035000001,sub-92751997
NA,NA,NA,NA,NA,NA,NA,gelb,yellow,g,1,NA,NA,NA,1,9,21,g,1,0.825189905000002,sub-92751997
NA,NA,NA,NA,NA,NA,NA,blau,red,r,0,NA,NA,NA,1,10,22,r,1,0.5515905489999113,sub-92751997
NA,NA,NA,NA,NA,NA,NA,gelb,red,r,0,NA,NA,NA,1,11,23,r,1,0.8000077540000348,sub-92751997
NA,NA,NA,NA,NA,NA,NA,gelb,red,r,0,NA,NA,NA,2,0,24,r,1,0.3675866800000449,sub-92751997
NA,NA,NA,NA,NA,NA,NA,rot,yellow,g,0,NA,NA,NA,2,1,25,g,1,0.4615855979999424,sub-92751997
NA,NA,NA,NA,NA,NA,NA,blau,yellow,g,0,NA,NA,NA,2,2,26,g,1,0.40115006399992126,sub-92751997
NA,NA,NA,NA,NA,NA,NA,blau,blue,b,1,NA,NA,NA,2,3,27,b,1,0.40333809399999154,sub-92751997
NA,NA,NA,NA,NA,NA,NA,gelb,yellow,g,1,NA,NA,NA,2,4,28,g,1,0.666729665000048,sub-92751997
NA,NA,NA,NA,NA,NA,NA,gelb,yellow,g,1,NA,NA,NA,2,5,29,g,1,0.5959596229999988,sub-92751997
NA,NA,NA,NA,NA,NA,NA,blau,blue,b,1,NA,NA,NA,2,6,30,b,1,0.4423544510000283,sub-92751997
NA,NA,NA,NA,NA,NA,NA,gelb,blue,b,0,NA,NA,NA,2,7,31,b,1,0.4845361000000139,sub-92751997
NA,NA,NA,NA,NA,NA,NA,rot,red,r,1,NA,NA,NA,2,8,32,r,1,0.6494526949999226,sub-92751997
NA,NA,NA,NA,NA,NA,NA,rot,blue,b,0,NA,NA,NA,2,9,33,g,0,0.5353622620000351,sub-92751997
NA,NA,NA,NA,NA,NA,NA,rot,red,r,1,NA,NA,NA,2,10,34,r,1,0.625592554999912,sub-92751997
NA,NA,NA,NA,NA,NA,NA,blau,red,r,0,NA,NA,NA,2,11,35,r,1,1.5620603890000666,sub-92751997
NA,NA,NA,NA,NA,NA,NA,rot,blue,b,0,NA,NA,NA,3,0,36,b,1,0.7029184100000521,sub-92751997
NA,NA,NA,NA,NA,NA,NA,rot,red,r,1,NA,NA,NA,3,1,37,r,1,0.6584503819999554,sub-92751997
NA,NA,NA,NA,NA,NA,NA,blau,red,r,0,NA,NA,NA,3,2,38,r,1,0.7219711609999422,sub-92751997
NA,NA,NA,NA,NA,NA,NA,gelb,yellow,g,1,NA,NA,NA,3,3,39,g,1,0.6848011560000486,sub-92751997
NA,NA,NA,NA,NA,NA,NA,gelb,blue,b,0,NA,NA,NA,3,4,40,b,1,0.4528032489999987,sub-92751997
NA,NA,NA,NA,NA,NA,NA,rot,red,r,1,NA,NA,NA,3,5,41,r,1,0.538398806000032,sub-92751997
NA,NA,NA,NA,NA,NA,NA,gelb,red,r,0,NA,NA,NA,3,6,42,r,1,0.6345666569999366,sub-92751997
NA,NA,NA,NA,NA,NA,NA,gelb,yellow,g,1,NA,NA,NA,3,7,43,g,1,0.5222648320000189,sub-92751997
NA,NA,NA,NA,NA,NA,NA,blau,blue,b,1,NA,NA,NA,3,8,44,b,1,0.5204291420000118,sub-92751997
NA,NA,NA,NA,NA,NA,NA,blau,yellow,g,0,NA,NA,NA,3,9,45,g,1,0.5383754970000609,sub-92751997
NA,NA,NA,NA,NA,NA,NA,blau,blue,b,1,NA,NA,NA,3,10,46,b,1,0.4919309079999721,sub-92751997
NA,NA,NA,NA,NA,NA,NA,rot,yellow,g,0,NA,NA,NA,3,11,47,r,0,0.8111139779999803,sub-92751997
NA,NA,NA,NA,NA,NA,NA,gelb,yellow,g,1,NA,NA,NA,4,0,48,g,1,0.584228201999963,sub-92751997
NA,NA,NA,NA,NA,NA,NA,rot,red,r,1,NA,NA,NA,4,1,49,r,1,0.5693463039999642,sub-92751997
NA,NA,NA,NA,NA,NA,NA,rot,yellow,g,0,NA,NA,NA,4,2,50,g,1,0.974295765000079,sub-92751997
NA,NA,NA,NA,NA,NA,NA,gelb,yellow,g,1,NA,NA,NA,4,3,51,g,1,0.8393433009999853,sub-92751997
NA,NA,NA,NA,NA,NA,NA,blau,yellow,g,0,NA,NA,NA,4,4,52,g,1,0.4823304349999944,sub-92751997
NA,NA,NA,NA,NA,NA,NA,rot,red,r,1,NA,NA,NA,4,5,53,r,1,0.5681020529999614,sub-92751997
NA,NA,NA,NA,NA,NA,NA,rot,blue,b,0,NA,NA,NA,4,6,54,b,1,0.5603957179999952,sub-92751997
NA,NA,NA,NA,NA,NA,NA,blau,blue,b,1,NA,NA,NA,4,7,55,b,1,0.5460472500000151,sub-92751997
NA,NA,NA,NA,NA,NA,NA,blau,blue,b,1,NA,NA,NA,4,8,56,b,1,0.3872079239999948,sub-92751997
NA,NA,NA,NA,NA,NA,NA,blau,red,r,0,NA,NA,NA,4,9,57,r,1,1.1819448919999331,sub-92751997
NA,NA,NA,NA,NA,NA,NA,gelb,red,r,0,NA,NA,NA,4,10,58,r,1,0.48628703600002154,sub-92751997
NA,NA,NA,NA,NA,NA,NA,gelb,blue,b,0,NA,NA,NA,4,11,59,b,1,0.6193794539999544,sub-92751997
NA,NA,NA,NA,NA,NA,NA,gelb,yellow,g,1,NA,NA,NA,5,0,60,g,1,0.4117847690000645,sub-92751997
NA,NA,NA,NA,NA,NA,NA,rot,red,r,1,NA,NA,NA,5,1,61,r,1,0.4009373220000043,sub-92751997
NA,NA,NA,NA,NA,NA,NA,blau,blue,b,1,NA,NA,NA,5,2,62,b,1,0.39061960799995177,sub-92751997
NA,NA,NA,NA,NA,NA,NA,gelb,blue,b,0,NA,NA,NA,5,3,63,b,1,0.4749002799999289,sub-92751997
NA,NA,NA,NA,NA,NA,NA,gelb,yellow,g,1,NA,NA,NA,5,4,64,g,1,0.49958077499991305,sub-92751997
NA,NA,NA,NA,NA,NA,NA,blau,blue,b,1,NA,NA,NA,5,5,65,b,1,0.49630456800002776,sub-92751997
NA,NA,NA,NA,NA,NA,NA,rot,blue,b,0,NA,NA,NA,5,6,66,r,0,0.6454963869999801,sub-92751997
NA,NA,NA,NA,NA,NA,NA,blau,yellow,g,0,NA,NA,NA,5,7,67,g,1,0.769225219999953,sub-92751997
NA,NA,NA,NA,NA,NA,NA,blau,red,r,0,NA,NA,NA,5,8,68,r,1,0.78355190700006,sub-92751997
NA,NA,NA,NA,NA,NA,NA,rot,yellow,g,0,NA,NA,NA,5,9,69,g,1,0.8736632709999412,sub-92751997
NA,NA,NA,NA,NA,NA,NA,rot,red,r,1,NA,NA,NA,5,10,70,r,1,0.6495301229999768,sub-92751997
NA,NA,NA,NA,NA,NA,NA,gelb,red,r,0,NA,NA,NA,5,11,71,r,1,0.5676265980000608,sub-92751997
NA,NA,NA,NA,NA,NA,NA,rot,red,r,1,NA,NA,NA,6,0,72,r,1,0.5286425660000305,sub-92751997
NA,NA,NA,NA,NA,NA,NA,blau,blue,b,1,NA,NA,NA,6,1,73,b,1,0.5516197739999598,sub-92751997
NA,NA,NA,NA,NA,NA,NA,gelb,blue,b,0,NA,NA,NA,6,2,74,b,1,0.4567738289999852,sub-92751997
NA,NA,NA,NA,NA,NA,NA,blau,blue,b,1,NA,NA,NA,6,3,75,b,1,0.4099510720000126,sub-92751997
NA,NA,NA,NA,NA,NA,NA,blau,red,r,0,NA,NA,NA,6,4,76,r,1,0.6046852919999992,sub-92751997
NA,NA,NA,NA,NA,NA,NA,gelb,yellow,g,1,NA,NA,NA,6,5,77,g,1,0.44223170399993705,sub-92751997
NA,NA,NA,NA,NA,NA,NA,rot,blue,b,0,NA,NA,NA,6,6,78,b,1,1.8418465710000191,sub-92751997
NA,NA,NA,NA,NA,NA,NA,rot,yellow,g,0,NA,NA,NA,6,7,79,g,1,1.058734819999927,sub-92751997
NA,NA,NA,NA,NA,NA,NA,gelb,yellow,g,1,NA,NA,NA,6,8,80,g,1,0.5405069220000769,sub-92751997
NA,NA,NA,NA,NA,NA,NA,blau,yellow,g,0,NA,NA,NA,6,9,81,g,1,0.4249788299999864,sub-92751997
NA,NA,NA,NA,NA,NA,NA,gelb,red,r,0,NA,NA,NA,6,10,82,r,1,0.6127621929999805,sub-92751997
NA,NA,NA,NA,NA,NA,NA,rot,red,r,1,NA,NA,NA,6,11,83,r,1,0.5243099190000748,sub-92751997
NA,NA,NA,NA,NA,NA,NA,gelb,red,r,0,NA,NA,NA,7,0,84,r,1,0.3734463399999868,sub-92751997
NA,NA,NA,NA,NA,NA,NA,rot,yellow,g,0,NA,NA,NA,7,1,85,g,1,0.9840924089999136,sub-92751997
NA,NA,NA,NA,NA,NA,NA,rot,blue,b,0,NA,NA,NA,7,2,86,b,1,0.4928886260000809,sub-92751997
NA,NA,NA,NA,NA,NA,NA,gelb,blue,b,0,NA,NA,NA,7,3,87,b,1,0.7240147139999635,sub-92751997
NA,NA,NA,NA,NA,NA,NA,blau,yellow,g,0,NA,NA,NA,7,4,88,g,1,0.5541582939999898,sub-92751997
NA,NA,NA,NA,NA,NA,NA,rot,red,r,1,NA,NA,NA,7,5,89,r,1,0.6511774049999985,sub-92751997
NA,NA,NA,NA,NA,NA,NA,blau,red,r,0,NA,NA,NA,7,6,90,r,1,0.6201026389999242,sub-92751997
NA,NA,NA,NA,NA,NA,NA,gelb,yellow,g,1,NA,NA,NA,7,7,91,g,1,0.7336799319999727,sub-92751997
NA,NA,NA,NA,NA,NA,NA,rot,red,r,1,NA,NA,NA,7,8,92,r,1,0.6401093450000417,sub-92751997
NA,NA,NA,NA,NA,NA,NA,blau,blue,b,1,NA,NA,NA,7,9,93,b,1,0.5693128870000237,sub-92751997
NA,NA,NA,NA,NA,NA,NA,gelb,yellow,g,1,NA,NA,NA,7,10,94,g,1,0.6196983130000717,sub-92751997
NA,NA,NA,NA,NA,NA,NA,blau,blue,b,1,NA,NA,NA,7,11,95,b,1,0.48378447300001426,sub-92751997
NA,NA,NA,NA,NA,NA,NA,gelb,red,r,0,NA,NA,NA,8,0,96,r,1,0.5763720559999683,sub-92751997
NA,NA,NA,NA,NA,NA,NA,blau,blue,b,1,NA,NA,NA,8,1,97,b,1,0.5383111080000162,sub-92751997
NA,NA,NA,NA,NA,NA,NA,blau,red,r,0,NA,NA,NA,8,2,98,r,1,0.7131576949999499,sub-92751997
NA,NA,NA,NA,NA,NA,NA,rot,red,r,1,NA,NA,NA,8,3,99,r,1,0.45786963999989894,sub-92751997
NA,NA,NA,NA,NA,NA,NA,rot,red,r,1,NA,NA,NA,8,4,100,r,1,0.4022273699999914,sub-92751997
NA,NA,NA,NA,NA,NA,NA,gelb,blue,b,0,NA,NA,NA,8,5,101,g,0,0.6065494530000706,sub-92751997
NA,NA,NA,NA,NA,NA,NA,blau,blue,b,1,NA,NA,NA,8,6,102,b,1,0.4684435020000137,sub-92751997
NA,NA,NA,NA,NA,NA,NA,gelb,yellow,g,1,NA,NA,NA,8,7,103,g,1,0.4329066500000635,sub-92751997
NA,NA,NA,NA,NA,NA,NA,gelb,yellow,g,1,NA,NA,NA,8,8,104,g,1,0.4037357280000151,sub-92751997
NA,NA,NA,NA,NA,NA,NA,rot,blue,b,0,NA,NA,NA,8,9,105,b,1,0.36838161399998626,sub-92751997
NA,NA,NA,NA,NA,NA,NA,rot,yellow,g,0,NA,NA,NA,8,10,106,g,1,1.037584999000046,sub-92751997
NA,NA,NA,NA,NA,NA,NA,blau,yellow,g,0,NA,NA,NA,8,11,107,g,1,0.5691329069999256,sub-92751997
NA,NA,NA,NA,NA,NA,NA,blau,red,r,0,NA,NA,NA,9,0,108,r,1,0.6378934560000289,sub-92751997
NA,NA,NA,NA,NA,NA,NA,gelb,yellow,g,1,NA,NA,NA,9,1,109,g,1,0.5256215770000381,sub-92751997
NA,NA,NA,NA,NA,NA,NA,gelb,blue,b,0,NA,NA,NA,9,2,110,b,1,0.6054986589999771,sub-92751997
NA,NA,NA,NA,NA,NA,NA,blau,yellow,g,0,NA,NA,NA,9,3,111,g,1,0.4527051359999632,sub-92751997
NA,NA,NA,NA,NA,NA,NA,rot,yellow,g,0,NA,NA,NA,9,4,112,g,1,0.6067428520000249,sub-92751997
NA,NA,NA,NA,NA,NA,NA,gelb,yellow,g,1,NA,NA,NA,9,5,113,g,1,0.4583239610000191,sub-92751997
NA,NA,NA,NA,NA,NA,NA,gelb,red,r,0,NA,NA,NA,9,6,114,r,1,0.5225763319999714,sub-92751997
NA,NA,NA,NA,NA,NA,NA,blau,blue,b,1,NA,NA,NA,9,7,115,b,1,0.5411023969999178,sub-92751997
NA,NA,NA,NA,NA,NA,NA,rot,red,r,1,NA,NA,NA,9,8,116,r,1,0.5836680119999755,sub-92751997
NA,NA,NA,NA,NA,NA,NA,blau,blue,b,1,NA,NA,NA,9,9,117,b,1,0.46521361800000705,sub-92751997
NA,NA,NA,NA,NA,NA,NA,rot,red,r,1,NA,NA,NA,9,10,118,r,1,0.5354322989999218,sub-92751997
NA,NA,NA,NA,NA,NA,NA,rot,blue,b,0,NA,NA,NA,9,11,119,b,1,0.7173354330000166,sub-92751997
NA,NA,NA,NA,NA,NA,NA,NA,NA,NA,NA,NA,NA,NA,NA,NA,NA,NA,NA,NA,sub-92751997
