wordCTK,colorCTK,corrAnsCTK,congruentCTK,wordPractice,colorPractice,congruentPractice,word,color,corrAns,congruent,trials_practice.thisRepN,trials_practice.thisTrialN,trials_practice.thisN,trials_test.thisRepN,trials_test.thisTrialN,trials_test.thisN,keyResp_test_run.keys,keyResp_test_run.corr,keyResp_test_run.rt,participant
NA,NA,NA,NA,NA,NA,NA,NA,NA,NA,NA,NA,NA,NA,NA,NA,NA,NA,NA,NA,sub-38398316
NA,NA,NA,NA,NA,NA,NA,NA,NA,NA,NA,NA,NA,NA,NA,NA,NA,NA,NA,NA,sub-38398316
test,yellow,g,1,NA,NA,NA,NA,NA,NA,NA,NA,NA,NA,NA,NA,NA,NA,NA,NA,sub-38398316
test,blue,b,1,NA,NA,NA,NA,NA,NA,NA,NA,NA,NA,NA,NA,NA,NA,NA,NA,sub-38398316
test,red,r,1,NA,NA,NA,NA,NA,NA,NA,NA,NA,NA,NA,NA,NA,NA,NA,NA,sub-38398316
test,yellow,g,1,NA,NA,NA,NA,NA,NA,NA,NA,NA,NA,NA,NA,NA,NA,NA,NA,sub-38398316
test,red,r,1,NA,NA,NA,NA,NA,NA,NA,NA,NA,NA,NA,NA,NA,NA,NA,NA,sub-38398316
test,blue,b,1,NA,NA,NA,NA,NA,NA,NA,NA,NA,NA,NA,NA,NA,NA,NA,NA,sub-38398316
test,red,r,1,NA,NA,NA,NA,NA,NA,NA,NA,NA,NA,NA,NA,NA,NA,NA,NA,sub-38398316
test,blue,b,1,NA,NA,NA,NA,NA,NA,NA,NA,NA,NA,NA,NA,NA,NA,NA,NA,sub-38398316
test,yellow,g,1,NA,NA,NA,NA,NA,NA,NA,NA,NA,NA,NA,NA,NA,NA,NA,NA,sub-38398316
test,red,r,1,NA,NA,NA,NA,NA,NA,NA,NA,NA,NA,NA,NA,NA,NA,NA,NA,sub-38398316
test,blue,b,1,NA,NA,NA,NA,NA,NA,NA,NA,NA,NA,NA,NA,NA,NA,NA,NA,sub-38398316
test,yellow,g,1,NA,NA,NA,NA,NA,NA,NA,NA,NA,NA,NA,NA,NA,NA,NA,NA,sub-38398316
NA,NA,NA,NA,NA,NA,NA,NA,NA,NA,NA,NA,NA,NA,NA,NA,NA,NA,NA,NA,sub-38398316
NA,NA,NA,NA,gelb,yellow,1,NA,NA,NA,NA,0,0,0,NA,NA,NA,NA,NA,NA,sub-38398316
NA,NA,NA,NA,rot,blue,0,NA,NA,NA,NA,0,1,1,NA,NA,NA,NA,NA,NA,sub-38398316
NA,NA,NA,NA,rot,red,1,NA,NA,NA,NA,0,2,2,NA,NA,NA,NA,NA,NA,sub-38398316
NA,NA,NA,NA,blau,blue,1,NA,NA,NA,NA,0,3,3,NA,NA,NA,NA,NA,NA,sub-38398316
NA,NA,NA,NA,blau,red,0,NA,NA,NA,NA,0,4,4,NA,NA,NA,NA,NA,NA,sub-38398316
NA,NA,NA,NA,gelb,red,0,NA,NA,NA,NA,0,5,5,NA,NA,NA,NA,NA,NA,sub-38398316
NA,NA,NA,NA,rot,yellow,0,NA,NA,NA,NA,0,6,6,NA,NA,NA,NA,NA,NA,sub-38398316
NA,NA,NA,NA,blau,yellow,0,NA,NA,NA,NA,0,7,7,NA,NA,NA,NA,NA,NA,sub-38398316
NA,NA,NA,NA,rot,red,1,NA,NA,NA,NA,0,8,8,NA,NA,NA,NA,NA,NA,sub-38398316
NA,NA,NA,NA,blau,blue,1,NA,NA,NA,NA,0,9,9,NA,NA,NA,NA,NA,NA,sub-38398316
NA,NA,NA,NA,gelb,blue,0,NA,NA,NA,NA,0,10,10,NA,NA,NA,NA,NA,NA,sub-38398316
NA,NA,NA,NA,gelb,yellow,1,NA,NA,NA,NA,0,11,11,NA,NA,NA,NA,NA,NA,sub-38398316
NA,NA,NA,NA,blau,red,0,NA,NA,NA,NA,1,0,12,NA,NA,NA,NA,NA,NA,sub-38398316
NA,NA,NA,NA,gelb,yellow,1,NA,NA,NA,NA,1,1,13,NA,NA,NA,NA,NA,NA,sub-38398316
NA,NA,NA,NA,rot,yellow,0,NA,NA,NA,NA,1,2,14,NA,NA,NA,NA,NA,NA,sub-38398316
NA,NA,NA,NA,rot,red,1,NA,NA,NA,NA,1,3,15,NA,NA,NA,NA,NA,NA,sub-38398316
NA,NA,NA,NA,blau,blue,1,NA,NA,NA,NA,1,4,16,NA,NA,NA,NA,NA,NA,sub-38398316
NA,NA,NA,NA,blau,blue,1,NA,NA,NA,NA,1,5,17,NA,NA,NA,NA,NA,NA,sub-38398316
NA,NA,NA,NA,rot,blue,0,NA,NA,NA,NA,1,6,18,NA,NA,NA,NA,NA,NA,sub-38398316
NA,NA,NA,NA,gelb,yellow,1,NA,NA,NA,NA,1,7,19,NA,NA,NA,NA,NA,NA,sub-38398316
NA,NA,NA,NA,gelb,blue,0,NA,NA,NA,NA,1,8,20,NA,NA,NA,NA,NA,NA,sub-38398316
NA,NA,NA,NA,gelb,red,0,NA,NA,NA,NA,1,9,21,NA,NA,NA,NA,NA,NA,sub-38398316
NA,NA,NA,NA,blau,yellow,0,NA,NA,NA,NA,1,10,22,NA,NA,NA,NA,NA,NA,sub-38398316
NA,NA,NA,NA,rot,red,1,NA,NA,NA,NA,1,11,23,NA,NA,NA,NA,NA,NA,sub-38398316
NA,NA,NA,NA,NA,NA,NA,NA,NA,NA,NA,NA,NA,NA,NA,NA,NA,NA,NA,NA,sub-38398316
NA,NA,NA,NA,NA,NA,NA,blau,yellow,g,0,NA,NA,NA,0,0,0,g,1,0.779477,sub-38398316
NA,NA,NA,NA,NA,NA,NA,rot,red,r,1,NA,NA,NA,0,1,1,r,1,0.5398692,sub-38398316
NA,NA,NA,NA,NA,NA,NA,blau,blue,b,1,NA,NA,NA,0,2,2,b,1,0.2778723,sub-38398316
NA,NA,NA,NA,NA,NA,NA,gelb,red,r,0,NA,NA,NA,0,3,3,r,1,0.4050274,sub-38398316
NA,NA,NA,NA,NA,NA,NA,blau,blue,b,1,NA,NA,NA,0,4,4,b,1,0.6155752,sub-38398316
NA,NA,NA,NA,NA,NA,NA,gelb,yellow,g,1,NA,NA,NA,0,5,5,g,1,0.2805521,sub-38398316
NA,NA,NA,NA,NA,NA,NA,gelb,blue,b,0,NA,NA,NA,0,6,6,b,1,0.4592574,sub-38398316
NA,NA,NA,NA,NA,NA,NA,rot,red,r,1,NA,NA,NA,0,7,7,r,1,0.6353534,sub-38398316
NA,NA,NA,NA,NA,NA,NA,rot,blue,b,0,NA,NA,NA,0,8,8,b,1,0.4486257,sub-38398316
NA,NA,NA,NA,NA,NA,NA,rot,yellow,g,0,NA,NA,NA,0,9,9,g,1,0.28000389999999997,sub-38398316
NA,NA,NA,NA,NA,NA,NA,gelb,yellow,g,1,NA,NA,NA,0,10,10,g,1,0.4715501,sub-38398316
NA,NA,NA,NA,NA,NA,NA,blau,red,r,0,NA,NA,NA,0,11,11,r,1,0.5099817,sub-38398316
NA,NA,NA,NA,NA,NA,NA,gelb,yellow,g,1,NA,NA,NA,1,0,12,g,1,0.7485674,sub-38398316
NA,NA,NA,NA,NA,NA,NA,rot,yellow,g,0,NA,NA,NA,1,1,13,g,1,0.5026671,sub-38398316
NA,NA,NA,NA,NA,NA,NA,blau,yellow,g,0,NA,NA,NA,1,2,14,g,1,0.5447731,sub-38398316
NA,NA,NA,NA,NA,NA,NA,gelb,red,r,0,NA,NA,NA,1,3,15,r,1,0.5294272,sub-38398316
NA,NA,NA,NA,NA,NA,NA,rot,red,r,1,NA,NA,NA,1,4,16,g,0,0.669937,sub-38398316
NA,NA,NA,NA,NA,NA,NA,rot,blue,b,0,NA,NA,NA,1,5,17,b,1,0.5224748,sub-38398316
NA,NA,NA,NA,NA,NA,NA,rot,red,r,1,NA,NA,NA,1,6,18,r,1,0.6251414,sub-38398316
NA,NA,NA,NA,NA,NA,NA,blau,blue,b,1,NA,NA,NA,1,7,19,b,1,0.5006919,sub-38398316
NA,NA,NA,NA,NA,NA,NA,blau,blue,b,1,NA,NA,NA,1,8,20,b,1,0.4681412,sub-38398316
NA,NA,NA,NA,NA,NA,NA,gelb,blue,b,0,NA,NA,NA,1,9,21,b,1,0.4851588,sub-38398316
NA,NA,NA,NA,NA,NA,NA,gelb,yellow,g,1,NA,NA,NA,1,10,22,g,1,0.5769106,sub-38398316
NA,NA,NA,NA,NA,NA,NA,blau,red,r,0,NA,NA,NA,1,11,23,r,1,0.4032757,sub-38398316
NA,NA,NA,NA,NA,NA,NA,gelb,red,r,0,NA,NA,NA,2,0,24,r,1,0.4601603,sub-38398316
NA,NA,NA,NA,NA,NA,NA,rot,red,r,1,NA,NA,NA,2,1,25,r,1,0.4610095,sub-38398316
NA,NA,NA,NA,NA,NA,NA,blau,red,r,0,NA,NA,NA,2,2,26,r,1,0.4430441,sub-38398316
NA,NA,NA,NA,NA,NA,NA,blau,blue,b,1,NA,NA,NA,2,3,27,b,1,0.5251555,sub-38398316
NA,NA,NA,NA,NA,NA,NA,blau,blue,b,1,NA,NA,NA,2,4,28,b,1,0.4078064,sub-38398316
NA,NA,NA,NA,NA,NA,NA,blau,yellow,g,0,NA,NA,NA,2,5,29,g,1,0.5492086,sub-38398316
NA,NA,NA,NA,NA,NA,NA,gelb,yellow,g,1,NA,NA,NA,2,6,30,g,1,0.4453412,sub-38398316
NA,NA,NA,NA,NA,NA,NA,rot,yellow,g,0,NA,NA,NA,2,7,31,g,1,0.3293028,sub-38398316
NA,NA,NA,NA,NA,NA,NA,rot,blue,b,0,NA,NA,NA,2,8,32,b,1,0.4785296,sub-38398316
NA,NA,NA,NA,NA,NA,NA,gelb,yellow,g,1,NA,NA,NA,2,9,33,g,1,0.737251,sub-38398316
NA,NA,NA,NA,NA,NA,NA,rot,red,r,1,NA,NA,NA,2,10,34,r,1,0.4330366,sub-38398316
NA,NA,NA,NA,NA,NA,NA,gelb,blue,b,0,NA,NA,NA,2,11,35,b,1,0.5046088,sub-38398316
NA,NA,NA,NA,NA,NA,NA,gelb,red,r,0,NA,NA,NA,3,0,36,r,1,0.6021702,sub-38398316
NA,NA,NA,NA,NA,NA,NA,rot,red,r,1,NA,NA,NA,3,1,37,r,1,0.5176079,sub-38398316
NA,NA,NA,NA,NA,NA,NA,rot,blue,b,0,NA,NA,NA,3,2,38,b,1,0.4272969,sub-38398316
NA,NA,NA,NA,NA,NA,NA,rot,yellow,g,0,NA,NA,NA,3,3,39,g,1,0.5756554,sub-38398316
NA,NA,NA,NA,NA,NA,NA,gelb,yellow,g,1,NA,NA,NA,3,4,40,g,1,0.538817,sub-38398316
NA,NA,NA,NA,NA,NA,NA,blau,blue,b,1,NA,NA,NA,3,5,41,b,1,0.4975367,sub-38398316
NA,NA,NA,NA,NA,NA,NA,blau,red,r,0,NA,NA,NA,3,6,42,r,1,0.5091092,sub-38398316
NA,NA,NA,NA,NA,NA,NA,rot,red,r,1,NA,NA,NA,3,7,43,r,1,0.4956679,sub-38398316
NA,NA,NA,NA,NA,NA,NA,gelb,yellow,g,1,NA,NA,NA,3,8,44,g,1,0.5747616,sub-38398316
NA,NA,NA,NA,NA,NA,NA,gelb,blue,b,0,NA,NA,NA,3,9,45,b,1,0.5309572,sub-38398316
NA,NA,NA,NA,NA,NA,NA,blau,blue,b,1,NA,NA,NA,3,10,46,b,1,0.4097739,sub-38398316
NA,NA,NA,NA,NA,NA,NA,blau,yellow,g,0,NA,NA,NA,3,11,47,g,1,0.6827583,sub-38398316
NA,NA,NA,NA,NA,NA,NA,blau,blue,b,1,NA,NA,NA,4,0,48,b,1,0.4306902,sub-38398316
NA,NA,NA,NA,NA,NA,NA,rot,red,r,1,NA,NA,NA,4,1,49,r,1,0.5148048,sub-38398316
NA,NA,NA,NA,NA,NA,NA,gelb,yellow,g,1,NA,NA,NA,4,2,50,g,1,0.5936195,sub-38398316
NA,NA,NA,NA,NA,NA,NA,rot,red,r,1,NA,NA,NA,4,3,51,r,1,0.4889464,sub-38398316
NA,NA,NA,NA,NA,NA,NA,gelb,red,r,0,NA,NA,NA,4,4,52,r,1,0.5266896,sub-38398316
NA,NA,NA,NA,NA,NA,NA,gelb,yellow,g,1,NA,NA,NA,4,5,53,g,1,1.1408542,sub-38398316
NA,NA,NA,NA,NA,NA,NA,rot,blue,b,0,NA,NA,NA,4,6,54,b,1,0.3894556,sub-38398316
NA,NA,NA,NA,NA,NA,NA,gelb,blue,b,0,NA,NA,NA,4,7,55,b,1,1.8723505,sub-38398316
NA,NA,NA,NA,NA,NA,NA,blau,blue,b,1,NA,NA,NA,4,8,56,b,1,0.6049608,sub-38398316
NA,NA,NA,NA,NA,NA,NA,rot,yellow,g,0,NA,NA,NA,4,9,57,g,1,0.5446829,sub-38398316
NA,NA,NA,NA,NA,NA,NA,blau,red,r,0,NA,NA,NA,4,10,58,r,1,0.3130144,sub-38398316
NA,NA,NA,NA,NA,NA,NA,blau,yellow,g,0,NA,NA,NA,4,11,59,g,1,0.5409404,sub-38398316
NA,NA,NA,NA,NA,NA,NA,gelb,red,r,0,NA,NA,NA,5,0,60,r,1,0.5877119,sub-38398316
NA,NA,NA,NA,NA,NA,NA,blau,red,r,0,NA,NA,NA,5,1,61,b,0,0.4447083,sub-38398316
NA,NA,NA,NA,NA,NA,NA,blau,yellow,g,0,NA,NA,NA,5,2,62,g,1,0.4588402,sub-38398316
NA,NA,NA,NA,NA,NA,NA,rot,red,r,1,NA,NA,NA,5,3,63,r,1,0.5030777,sub-38398316
NA,NA,NA,NA,NA,NA,NA,rot,blue,b,0,NA,NA,NA,5,4,64,b,1,0.4341505,sub-38398316
NA,NA,NA,NA,NA,NA,NA,blau,blue,b,1,NA,NA,NA,5,5,65,b,1,0.518239,sub-38398316
NA,NA,NA,NA,NA,NA,NA,rot,yellow,g,0,NA,NA,NA,5,6,66,g,1,0.4580112,sub-38398316
NA,NA,NA,NA,NA,NA,NA,gelb,yellow,g,1,NA,NA,NA,5,7,67,g,1,0.4772658,sub-38398316
NA,NA,NA,NA,NA,NA,NA,rot,red,r,1,NA,NA,NA,5,8,68,r,1,0.4365729,sub-38398316
NA,NA,NA,NA,NA,NA,NA,blau,blue,b,1,NA,NA,NA,5,9,69,b,1,0.4648467,sub-38398316
NA,NA,NA,NA,NA,NA,NA,gelb,yellow,g,1,NA,NA,NA,5,10,70,g,1,0.4848766,sub-38398316
NA,NA,NA,NA,NA,NA,NA,gelb,blue,b,0,NA,NA,NA,5,11,71,b,1,0.5866631,sub-38398316
NA,NA,NA,NA,NA,NA,NA,gelb,red,r,0,NA,NA,NA,6,0,72,r,1,0.2599418,sub-38398316
NA,NA,NA,NA,NA,NA,NA,gelb,blue,b,0,NA,NA,NA,6,1,73,b,1,0.5574469,sub-38398316
NA,NA,NA,NA,NA,NA,NA,gelb,yellow,g,1,NA,NA,NA,6,2,74,g,1,0.2720766,sub-38398316
NA,NA,NA,NA,NA,NA,NA,blau,red,r,0,NA,NA,NA,6,3,75,r,1,0.5193879,sub-38398316
NA,NA,NA,NA,NA,NA,NA,blau,yellow,g,0,NA,NA,NA,6,4,76,g,1,0.7104209,sub-38398316
NA,NA,NA,NA,NA,NA,NA,rot,blue,b,0,NA,NA,NA,6,5,77,b,1,0.3248442,sub-38398316
NA,NA,NA,NA,NA,NA,NA,blau,blue,b,1,NA,NA,NA,6,6,78,b,1,0.3915853,sub-38398316
NA,NA,NA,NA,NA,NA,NA,rot,red,r,1,NA,NA,NA,6,7,79,r,1,0.2558009,sub-38398316
NA,NA,NA,NA,NA,NA,NA,rot,red,r,1,NA,NA,NA,6,8,80,r,1,0.5154496,sub-38398316
NA,NA,NA,NA,NA,NA,NA,gelb,yellow,g,1,NA,NA,NA,6,9,81,g,1,0.2434262,sub-38398316
NA,NA,NA,NA,NA,NA,NA,rot,yellow,g,0,NA,NA,NA,6,10,82,g,1,0.4287482,sub-38398316
NA,NA,NA,NA,NA,NA,NA,blau,blue,b,1,NA,NA,NA,6,11,83,r,0,0.4409339,sub-38398316
NA,NA,NA,NA,NA,NA,NA,gelb,blue,b,0,NA,NA,NA,7,0,84,r,0,0.3847749,sub-38398316
NA,NA,NA,NA,NA,NA,NA,rot,yellow,g,0,NA,NA,NA,7,1,85,g,1,0.8310534,sub-38398316
NA,NA,NA,NA,NA,NA,NA,rot,red,r,1,NA,NA,NA,7,2,86,r,1,0.5315794,sub-38398316
NA,NA,NA,NA,NA,NA,NA,gelb,yellow,g,1,NA,NA,NA,7,3,87,g,1,0.7789944,sub-38398316
NA,NA,NA,NA,NA,NA,NA,blau,red,r,0,NA,NA,NA,7,4,88,r,1,0.7066,sub-38398316
NA,NA,NA,NA,NA,NA,NA,rot,blue,b,0,NA,NA,NA,7,5,89,b,1,0.5015736,sub-38398316
NA,NA,NA,NA,NA,NA,NA,blau,blue,b,1,NA,NA,NA,7,6,90,b,1,0.5087329,sub-38398316
NA,NA,NA,NA,NA,NA,NA,gelb,red,r,0,NA,NA,NA,7,7,91,g,0,0.9364738,sub-38398316
NA,NA,NA,NA,NA,NA,NA,blau,blue,b,1,NA,NA,NA,7,8,92,b,1,1.2106131,sub-38398316
NA,NA,NA,NA,NA,NA,NA,rot,red,r,1,NA,NA,NA,7,9,93,r,1,0.497024,sub-38398316
NA,NA,NA,NA,NA,NA,NA,blau,yellow,g,0,NA,NA,NA,7,10,94,g,1,0.3612207,sub-38398316
NA,NA,NA,NA,NA,NA,NA,gelb,yellow,g,1,NA,NA,NA,7,11,95,g,1,0.6297104,sub-38398316
NA,NA,NA,NA,NA,NA,NA,gelb,blue,b,0,NA,NA,NA,8,0,96,b,1,0.4536347,sub-38398316
NA,NA,NA,NA,NA,NA,NA,blau,red,r,0,NA,NA,NA,8,1,97,r,1,0.4379682,sub-38398316
NA,NA,NA,NA,NA,NA,NA,gelb,red,r,0,NA,NA,NA,8,2,98,r,1,0.4986288,sub-38398316
NA,NA,NA,NA,NA,NA,NA,rot,yellow,g,0,NA,NA,NA,8,3,99,g,1,0.3990047,sub-38398316
NA,NA,NA,NA,NA,NA,NA,rot,blue,b,0,NA,NA,NA,8,4,100,b,1,0.4914567,sub-38398316
NA,NA,NA,NA,NA,NA,NA,gelb,yellow,g,1,NA,NA,NA,8,5,101,g,1,0.6494917,sub-38398316
NA,NA,NA,NA,NA,NA,NA,gelb,yellow,g,1,NA,NA,NA,8,6,102,g,1,1.4846528,sub-38398316
NA,NA,NA,NA,NA,NA,NA,rot,red,r,1,NA,NA,NA,8,7,103,r,1,0.5222605,sub-38398316
NA,NA,NA,NA,NA,NA,NA,rot,red,r,1,NA,NA,NA,8,8,104,r,1,0.8074844,sub-38398316
NA,NA,NA,NA,NA,NA,NA,blau,blue,b,1,NA,NA,NA,8,9,105,b,1,0.5067058,sub-38398316
NA,NA,NA,NA,NA,NA,NA,blau,yellow,g,0,NA,NA,NA,8,10,106,g,1,0.7218573,sub-38398316
NA,NA,NA,NA,NA,NA,NA,blau,blue,b,1,NA,NA,NA,8,11,107,b,1,0.6114726,sub-38398316
NA,NA,NA,NA,NA,NA,NA,rot,red,r,1,NA,NA,NA,9,0,108,r,1,0.7307177,sub-38398316
NA,NA,NA,NA,NA,NA,NA,blau,blue,b,1,NA,NA,NA,9,1,109,b,1,0.9289885,sub-38398316
NA,NA,NA,NA,NA,NA,NA,blau,red,r,0,NA,NA,NA,9,2,110,r,1,0.7033452,sub-38398316
NA,NA,NA,NA,NA,NA,NA,blau,yellow,g,0,NA,NA,NA,9,3,111,g,1,0.4424163,sub-38398316
NA,NA,NA,NA,NA,NA,NA,rot,red,r,1,NA,NA,NA,9,4,112,r,1,0.5085919,sub-38398316
NA,NA,NA,NA,NA,NA,NA,gelb,blue,b,0,NA,NA,NA,9,5,113,b,1,0.4854676,sub-38398316
NA,NA,NA,NA,NA,NA,NA,rot,blue,b,0,NA,NA,NA,9,6,114,b,1,0.7584632,sub-38398316
NA,NA,NA,NA,NA,NA,NA,gelb,red,r,0,NA,NA,NA,9,7,115,r,1,0.6737204,sub-38398316
NA,NA,NA,NA,NA,NA,NA,gelb,yellow,g,1,NA,NA,NA,9,8,116,g,1,0.3529804,sub-38398316
NA,NA,NA,NA,NA,NA,NA,gelb,yellow,g,1,NA,NA,NA,9,9,117,g,1,0.3531461,sub-38398316
NA,NA,NA,NA,NA,NA,NA,rot,yellow,g,0,NA,NA,NA,9,10,118,g,1,0.3332549,sub-38398316
NA,NA,NA,NA,NA,NA,NA,blau,blue,b,1,NA,NA,NA,9,11,119,b,1,0.5236766,sub-38398316
NA,NA,NA,NA,NA,NA,NA,NA,NA,NA,NA,NA,NA,NA,NA,NA,NA,NA,NA,NA,sub-38398316
