wordCTK,colorCTK,corrAnsCTK,congruentCTK,wordPractice,colorPractice,congruentPractice,word,color,corrAns,congruent,trials_practice.thisRepN,trials_practice.thisTrialN,trials_practice.thisN,trials_test.thisRepN,trials_test.thisTrialN,trials_test.thisN,keyResp_test_run.keys,keyResp_test_run.corr,keyResp_test_run.rt,participant
NA,NA,NA,NA,NA,NA,NA,NA,NA,NA,NA,NA,NA,NA,NA,NA,NA,NA,NA,NA,sub-20312455
NA,NA,NA,NA,NA,NA,NA,NA,NA,NA,NA,NA,NA,NA,NA,NA,NA,NA,NA,NA,sub-20312455
test,red,r,1,NA,NA,NA,NA,NA,NA,NA,NA,NA,NA,NA,NA,NA,NA,NA,NA,sub-20312455
test,yellow,g,1,NA,NA,NA,NA,NA,NA,NA,NA,NA,NA,NA,NA,NA,NA,NA,NA,sub-20312455
test,blue,b,1,NA,NA,NA,NA,NA,NA,NA,NA,NA,NA,NA,NA,NA,NA,NA,NA,sub-20312455
test,yellow,g,1,NA,NA,NA,NA,NA,NA,NA,NA,NA,NA,NA,NA,NA,NA,NA,NA,sub-20312455
test,red,r,1,NA,NA,NA,NA,NA,NA,NA,NA,NA,NA,NA,NA,NA,NA,NA,NA,sub-20312455
test,blue,b,1,NA,NA,NA,NA,NA,NA,NA,NA,NA,NA,NA,NA,NA,NA,NA,NA,sub-20312455
test,blue,b,1,NA,NA,NA,NA,NA,NA,NA,NA,NA,NA,NA,NA,NA,NA,NA,NA,sub-20312455
test,yellow,g,1,NA,NA,NA,NA,NA,NA,NA,NA,NA,NA,NA,NA,NA,NA,NA,NA,sub-20312455
test,red,r,1,NA,NA,NA,NA,NA,NA,NA,NA,NA,NA,NA,NA,NA,NA,NA,NA,sub-20312455
test,yellow,g,1,NA,NA,NA,NA,NA,NA,NA,NA,NA,NA,NA,NA,NA,NA,NA,NA,sub-20312455
test,blue,b,1,NA,NA,NA,NA,NA,NA,NA,NA,NA,NA,NA,NA,NA,NA,NA,NA,sub-20312455
test,red,r,1,NA,NA,NA,NA,NA,NA,NA,NA,NA,NA,NA,NA,NA,NA,NA,NA,sub-20312455
NA,NA,NA,NA,NA,NA,NA,NA,NA,NA,NA,NA,NA,NA,NA,NA,NA,NA,NA,NA,sub-20312455
NA,NA,NA,NA,rot,yellow,0,NA,NA,NA,NA,0,0,0,NA,NA,NA,NA,NA,NA,sub-20312455
NA,NA,NA,NA,blau,red,0,NA,NA,NA,NA,0,1,1,NA,NA,NA,NA,NA,NA,sub-20312455
NA,NA,NA,NA,blau,blue,1,NA,NA,NA,NA,0,2,2,NA,NA,NA,NA,NA,NA,sub-20312455
NA,NA,NA,NA,rot,red,1,NA,NA,NA,NA,0,3,3,NA,NA,NA,NA,NA,NA,sub-20312455
NA,NA,NA,NA,gelb,red,0,NA,NA,NA,NA,0,4,4,NA,NA,NA,NA,NA,NA,sub-20312455
NA,NA,NA,NA,gelb,blue,0,NA,NA,NA,NA,0,5,5,NA,NA,NA,NA,NA,NA,sub-20312455
NA,NA,NA,NA,gelb,yellow,1,NA,NA,NA,NA,0,6,6,NA,NA,NA,NA,NA,NA,sub-20312455
NA,NA,NA,NA,gelb,yellow,1,NA,NA,NA,NA,0,7,7,NA,NA,NA,NA,NA,NA,sub-20312455
NA,NA,NA,NA,blau,yellow,0,NA,NA,NA,NA,0,8,8,NA,NA,NA,NA,NA,NA,sub-20312455
NA,NA,NA,NA,blau,blue,1,NA,NA,NA,NA,0,9,9,NA,NA,NA,NA,NA,NA,sub-20312455
NA,NA,NA,NA,rot,blue,0,NA,NA,NA,NA,0,10,10,NA,NA,NA,NA,NA,NA,sub-20312455
NA,NA,NA,NA,rot,red,1,NA,NA,NA,NA,0,11,11,NA,NA,NA,NA,NA,NA,sub-20312455
NA,NA,NA,NA,blau,yellow,0,NA,NA,NA,NA,1,0,12,NA,NA,NA,NA,NA,NA,sub-20312455
NA,NA,NA,NA,rot,red,1,NA,NA,NA,NA,1,1,13,NA,NA,NA,NA,NA,NA,sub-20312455
NA,NA,NA,NA,gelb,red,0,NA,NA,NA,NA,1,2,14,NA,NA,NA,NA,NA,NA,sub-20312455
NA,NA,NA,NA,blau,red,0,NA,NA,NA,NA,1,3,15,NA,NA,NA,NA,NA,NA,sub-20312455
NA,NA,NA,NA,gelb,blue,0,NA,NA,NA,NA,1,4,16,NA,NA,NA,NA,NA,NA,sub-20312455
NA,NA,NA,NA,blau,blue,1,NA,NA,NA,NA,1,5,17,NA,NA,NA,NA,NA,NA,sub-20312455
NA,NA,NA,NA,gelb,yellow,1,NA,NA,NA,NA,1,6,18,NA,NA,NA,NA,NA,NA,sub-20312455
NA,NA,NA,NA,rot,blue,0,NA,NA,NA,NA,1,7,19,NA,NA,NA,NA,NA,NA,sub-20312455
NA,NA,NA,NA,gelb,yellow,1,NA,NA,NA,NA,1,8,20,NA,NA,NA,NA,NA,NA,sub-20312455
NA,NA,NA,NA,rot,yellow,0,NA,NA,NA,NA,1,9,21,NA,NA,NA,NA,NA,NA,sub-20312455
NA,NA,NA,NA,blau,blue,1,NA,NA,NA,NA,1,10,22,NA,NA,NA,NA,NA,NA,sub-20312455
NA,NA,NA,NA,rot,red,1,NA,NA,NA,NA,1,11,23,NA,NA,NA,NA,NA,NA,sub-20312455
NA,NA,NA,NA,NA,NA,NA,NA,NA,NA,NA,NA,NA,NA,NA,NA,NA,NA,NA,NA,sub-20312455
NA,NA,NA,NA,NA,NA,NA,blau,yellow,g,0,NA,NA,NA,0,0,0,r,0,0.8523083999752998,sub-20312455
NA,NA,NA,NA,NA,NA,NA,blau,blue,b,1,NA,NA,NA,0,1,1,b,1,0.6382462000474334,sub-20312455
NA,NA,NA,NA,NA,NA,NA,blau,red,r,0,NA,NA,NA,0,2,2,r,1,0.9445246998220682,sub-20312455
NA,NA,NA,NA,NA,NA,NA,gelb,yellow,g,1,NA,NA,NA,0,3,3,g,1,0.3813021001406014,sub-20312455
NA,NA,NA,NA,NA,NA,NA,rot,red,r,1,NA,NA,NA,0,4,4,r,1,0.5281679998151958,sub-20312455
NA,NA,NA,NA,NA,NA,NA,rot,yellow,g,0,NA,NA,NA,0,5,5,g,1,0.7002471000887454,sub-20312455
NA,NA,NA,NA,NA,NA,NA,gelb,yellow,g,1,NA,NA,NA,0,6,6,g,1,0.5214279000647366,sub-20312455
NA,NA,NA,NA,NA,NA,NA,gelb,blue,b,0,NA,NA,NA,0,7,7,b,1,0.7251599999144673,sub-20312455
NA,NA,NA,NA,NA,NA,NA,rot,blue,b,0,NA,NA,NA,0,8,8,b,1,0.7922196998260915,sub-20312455
NA,NA,NA,NA,NA,NA,NA,gelb,red,r,0,NA,NA,NA,0,9,9,r,1,0.6773072998039424,sub-20312455
NA,NA,NA,NA,NA,NA,NA,rot,red,r,1,NA,NA,NA,0,10,10,r,1,0.5460787997581065,sub-20312455
NA,NA,NA,NA,NA,NA,NA,blau,blue,b,1,NA,NA,NA,0,11,11,b,1,0.5464307004585862,sub-20312455
NA,NA,NA,NA,NA,NA,NA,blau,blue,b,1,NA,NA,NA,1,0,12,b,1,0.472218899987638,sub-20312455
NA,NA,NA,NA,NA,NA,NA,blau,red,r,0,NA,NA,NA,1,1,13,r,1,0.6992101003415883,sub-20312455
NA,NA,NA,NA,NA,NA,NA,rot,red,r,1,NA,NA,NA,1,2,14,r,1,0.4525136002339423,sub-20312455
NA,NA,NA,NA,NA,NA,NA,blau,blue,b,1,NA,NA,NA,1,3,15,b,1,0.4208815000019968,sub-20312455
NA,NA,NA,NA,NA,NA,NA,rot,yellow,g,0,NA,NA,NA,1,4,16,g,1,0.3589324001222849,sub-20312455
NA,NA,NA,NA,NA,NA,NA,gelb,yellow,g,1,NA,NA,NA,1,5,17,g,1,0.42125870008021593,sub-20312455
NA,NA,NA,NA,NA,NA,NA,rot,blue,b,0,NA,NA,NA,1,6,18,b,1,0.7342304000630975,sub-20312455
NA,NA,NA,NA,NA,NA,NA,gelb,yellow,g,1,NA,NA,NA,1,7,19,g,1,0.5691995001398027,sub-20312455
NA,NA,NA,NA,NA,NA,NA,blau,yellow,g,0,NA,NA,NA,1,8,20,g,1,0.7351008001714945,sub-20312455
NA,NA,NA,NA,NA,NA,NA,gelb,blue,b,0,NA,NA,NA,1,9,21,b,1,0.4135197000578046,sub-20312455
NA,NA,NA,NA,NA,NA,NA,rot,red,r,1,NA,NA,NA,1,10,22,r,1,0.5341699002310634,sub-20312455
NA,NA,NA,NA,NA,NA,NA,gelb,red,r,0,NA,NA,NA,1,11,23,r,1,0.5638603996485472,sub-20312455
NA,NA,NA,NA,NA,NA,NA,rot,yellow,g,0,NA,NA,NA,2,0,24,g,1,0.685159900225699,sub-20312455
NA,NA,NA,NA,NA,NA,NA,gelb,yellow,g,1,NA,NA,NA,2,1,25,g,1,0.5459941001608968,sub-20312455
NA,NA,NA,NA,NA,NA,NA,blau,red,r,0,NA,NA,NA,2,2,26,r,1,0.903268199879676,sub-20312455
NA,NA,NA,NA,NA,NA,NA,rot,red,r,1,NA,NA,NA,2,3,27,r,1,0.3379958001896739,sub-20312455
NA,NA,NA,NA,NA,NA,NA,blau,yellow,g,0,NA,NA,NA,2,4,28,g,1,0.9001309000886977,sub-20312455
NA,NA,NA,NA,NA,NA,NA,gelb,blue,b,0,NA,NA,NA,2,5,29,b,1,0.5859393998980522,sub-20312455
NA,NA,NA,NA,NA,NA,NA,rot,red,r,1,NA,NA,NA,2,6,30,r,1,0.5453364998102188,sub-20312455
NA,NA,NA,NA,NA,NA,NA,gelb,yellow,g,1,NA,NA,NA,2,7,31,g,1,0.5194244999438524,sub-20312455
NA,NA,NA,NA,NA,NA,NA,blau,blue,b,1,NA,NA,NA,2,8,32,b,1,0.5329686002805829,sub-20312455
NA,NA,NA,NA,NA,NA,NA,gelb,red,r,0,NA,NA,NA,2,9,33,r,1,0.6292929998598993,sub-20312455
NA,NA,NA,NA,NA,NA,NA,blau,blue,b,1,NA,NA,NA,2,10,34,b,1,0.4960460998117924,sub-20312455
NA,NA,NA,NA,NA,NA,NA,rot,blue,b,0,NA,NA,NA,2,11,35,b,1,0.8975837999023497,sub-20312455
NA,NA,NA,NA,NA,NA,NA,gelb,blue,b,0,NA,NA,NA,3,0,36,b,1,0.4672714998014271,sub-20312455
NA,NA,NA,NA,NA,NA,NA,rot,red,r,1,NA,NA,NA,3,1,37,r,1,0.4761491999961436,sub-20312455
NA,NA,NA,NA,NA,NA,NA,blau,blue,b,1,NA,NA,NA,3,2,38,b,1,0.4274459001608193,sub-20312455
NA,NA,NA,NA,NA,NA,NA,gelb,red,r,0,NA,NA,NA,3,3,39,r,1,0.6298274998553097,sub-20312455
NA,NA,NA,NA,NA,NA,NA,blau,blue,b,1,NA,NA,NA,3,4,40,b,1,0.5928484001196921,sub-20312455
NA,NA,NA,NA,NA,NA,NA,rot,yellow,g,0,NA,NA,NA,3,5,41,g,1,0.5311965998262167,sub-20312455
NA,NA,NA,NA,NA,NA,NA,rot,blue,b,0,NA,NA,NA,3,6,42,b,1,0.6198284002020955,sub-20312455
NA,NA,NA,NA,NA,NA,NA,blau,yellow,g,0,NA,NA,NA,3,7,43,g,1,NA,sub-20312455
NA,NA,NA,NA,NA,NA,NA,gelb,yellow,g,1,NA,NA,NA,3,8,44,g,1,0.41539410036057234,sub-20312455
NA,NA,NA,NA,NA,NA,NA,rot,red,r,1,NA,NA,NA,3,9,45,r,1,0.5553216999396682,sub-20312455
NA,NA,NA,NA,NA,NA,NA,blau,red,r,0,NA,NA,NA,3,10,46,g,0,0.46940460009500384,sub-20312455
NA,NA,NA,NA,NA,NA,NA,gelb,yellow,g,1,NA,NA,NA,3,11,47,g,1,0.6923141996376216,sub-20312455
NA,NA,NA,NA,NA,NA,NA,gelb,yellow,g,1,NA,NA,NA,4,0,48,g,1,0.5063225999474525,sub-20312455
NA,NA,NA,NA,NA,NA,NA,gelb,yellow,g,1,NA,NA,NA,4,1,49,g,1,0.4475984000600874,sub-20312455
NA,NA,NA,NA,NA,NA,NA,rot,red,r,1,NA,NA,NA,4,2,50,r,1,0.4913198999129236,sub-20312455
NA,NA,NA,NA,NA,NA,NA,gelb,blue,b,0,NA,NA,NA,4,3,51,b,1,0.6209929999895394,sub-20312455
NA,NA,NA,NA,NA,NA,NA,blau,blue,b,1,NA,NA,NA,4,4,52,b,1,0.4998713997192681,sub-20312455
NA,NA,NA,NA,NA,NA,NA,rot,red,r,1,NA,NA,NA,4,5,53,r,1,0.7369836997240782,sub-20312455
NA,NA,NA,NA,NA,NA,NA,rot,blue,b,0,NA,NA,NA,4,6,54,b,1,0.680759500246495,sub-20312455
NA,NA,NA,NA,NA,NA,NA,blau,red,r,0,NA,NA,NA,4,7,55,r,1,0.7853386998176575,sub-20312455
NA,NA,NA,NA,NA,NA,NA,rot,yellow,g,0,NA,NA,NA,4,8,56,g,1,0.4146178001537919,sub-20312455
NA,NA,NA,NA,NA,NA,NA,gelb,red,r,0,NA,NA,NA,4,9,57,r,1,0.6238102996721864,sub-20312455
NA,NA,NA,NA,NA,NA,NA,blau,blue,b,1,NA,NA,NA,4,10,58,b,1,0.4792363001033664,sub-20312455
NA,NA,NA,NA,NA,NA,NA,blau,yellow,g,0,NA,NA,NA,4,11,59,g,1,0.864552500192076,sub-20312455
NA,NA,NA,NA,NA,NA,NA,blau,blue,b,1,NA,NA,NA,5,0,60,b,1,0.5368619002401829,sub-20312455
NA,NA,NA,NA,NA,NA,NA,blau,red,r,0,NA,NA,NA,5,1,61,r,1,0.5674707000143826,sub-20312455
NA,NA,NA,NA,NA,NA,NA,rot,red,r,1,NA,NA,NA,5,2,62,r,1,0.5294371000491083,sub-20312455
NA,NA,NA,NA,NA,NA,NA,gelb,yellow,g,1,NA,NA,NA,5,3,63,g,1,0.5291561000049114,sub-20312455
NA,NA,NA,NA,NA,NA,NA,blau,yellow,g,0,NA,NA,NA,5,4,64,g,1,0.5440592998638749,sub-20312455
NA,NA,NA,NA,NA,NA,NA,gelb,blue,b,0,NA,NA,NA,5,5,65,b,1,0.5511706997640431,sub-20312455
NA,NA,NA,NA,NA,NA,NA,blau,blue,b,1,NA,NA,NA,5,6,66,b,1,0.5251751001924276,sub-20312455
NA,NA,NA,NA,NA,NA,NA,gelb,red,r,0,NA,NA,NA,5,7,67,r,1,0.5707153999246657,sub-20312455
NA,NA,NA,NA,NA,NA,NA,rot,yellow,g,0,NA,NA,NA,5,8,68,g,1,0.5538361999206245,sub-20312455
NA,NA,NA,NA,NA,NA,NA,rot,blue,b,0,NA,NA,NA,5,9,69,b,1,0.4491000999696553,sub-20312455
NA,NA,NA,NA,NA,NA,NA,gelb,yellow,g,1,NA,NA,NA,5,10,70,g,1,0.5167898000217974,sub-20312455
NA,NA,NA,NA,NA,NA,NA,rot,red,r,1,NA,NA,NA,5,11,71,r,1,0.5827659000642598,sub-20312455
NA,NA,NA,NA,NA,NA,NA,gelb,yellow,g,1,NA,NA,NA,6,0,72,g,1,0.3737217001616955,sub-20312455
NA,NA,NA,NA,NA,NA,NA,rot,red,r,1,NA,NA,NA,6,1,73,r,1,0.4960793000645936,sub-20312455
NA,NA,NA,NA,NA,NA,NA,gelb,yellow,g,1,NA,NA,NA,6,2,74,g,1,0.4012154000811279,sub-20312455
NA,NA,NA,NA,NA,NA,NA,rot,yellow,g,0,NA,NA,NA,6,3,75,g,1,0.4004731997847557,sub-20312455
NA,NA,NA,NA,NA,NA,NA,blau,blue,b,1,NA,NA,NA,6,4,76,b,1,0.3948353002779186,sub-20312455
NA,NA,NA,NA,NA,NA,NA,rot,red,r,1,NA,NA,NA,6,5,77,r,1,0.3760057003237307,sub-20312455
NA,NA,NA,NA,NA,NA,NA,rot,blue,b,0,NA,NA,NA,6,6,78,g,0,0.5792179997079074,sub-20312455
NA,NA,NA,NA,NA,NA,NA,blau,yellow,g,0,NA,NA,NA,6,7,79,g,1,0.960923600010574,sub-20312455
NA,NA,NA,NA,NA,NA,NA,blau,blue,b,1,NA,NA,NA,6,8,80,b,1,0.4134310996159911,sub-20312455
NA,NA,NA,NA,NA,NA,NA,blau,red,r,0,NA,NA,NA,6,9,81,r,1,0.5926049002446234,sub-20312455
NA,NA,NA,NA,NA,NA,NA,gelb,blue,b,0,NA,NA,NA,6,10,82,b,1,0.3681040001101792,sub-20312455
NA,NA,NA,NA,NA,NA,NA,gelb,red,r,0,NA,NA,NA,6,11,83,r,1,0.7493619001470506,sub-20312455
NA,NA,NA,NA,NA,NA,NA,gelb,yellow,g,1,NA,NA,NA,7,0,84,g,1,0.5378189003095031,sub-20312455
NA,NA,NA,NA,NA,NA,NA,blau,red,r,0,NA,NA,NA,7,1,85,r,1,0.857464199885726,sub-20312455
NA,NA,NA,NA,NA,NA,NA,blau,yellow,g,0,NA,NA,NA,7,2,86,g,1,0.6162890000268817,sub-20312455
NA,NA,NA,NA,NA,NA,NA,gelb,yellow,g,1,NA,NA,NA,7,3,87,g,1,0.6787678999826312,sub-20312455
NA,NA,NA,NA,NA,NA,NA,blau,blue,b,1,NA,NA,NA,7,4,88,b,1,0.4827876999042928,sub-20312455
NA,NA,NA,NA,NA,NA,NA,rot,blue,b,0,NA,NA,NA,7,5,89,b,1,0.5572599996812642,sub-20312455
NA,NA,NA,NA,NA,NA,NA,rot,red,r,1,NA,NA,NA,7,6,90,r,1,0.5055618002079427,sub-20312455
NA,NA,NA,NA,NA,NA,NA,blau,blue,b,1,NA,NA,NA,7,7,91,b,1,0.46369990007951856,sub-20312455
NA,NA,NA,NA,NA,NA,NA,rot,yellow,g,0,NA,NA,NA,7,8,92,r,0,0.7379842000082135,sub-20312455
NA,NA,NA,NA,NA,NA,NA,gelb,red,r,0,NA,NA,NA,7,9,93,r,1,NA,sub-20312455
NA,NA,NA,NA,NA,NA,NA,gelb,blue,b,0,NA,NA,NA,7,10,94,b,1,0.4184356997720897,sub-20312455
NA,NA,NA,NA,NA,NA,NA,rot,red,r,1,NA,NA,NA,7,11,95,r,1,0.4906371999531984,sub-20312455
NA,NA,NA,NA,NA,NA,NA,blau,yellow,g,0,NA,NA,NA,8,0,96,g,1,0.34046269999817014,sub-20312455
NA,NA,NA,NA,NA,NA,NA,gelb,yellow,g,1,NA,NA,NA,8,1,97,g,1,0.4984356998465955,sub-20312455
NA,NA,NA,NA,NA,NA,NA,rot,red,r,1,NA,NA,NA,8,2,98,r,1,0.4851591000333429,sub-20312455
NA,NA,NA,NA,NA,NA,NA,gelb,blue,b,0,NA,NA,NA,8,3,99,b,1,0.5151690999045968,sub-20312455
NA,NA,NA,NA,NA,NA,NA,rot,red,r,1,NA,NA,NA,8,4,100,r,1,0.6654151999391615,sub-20312455
NA,NA,NA,NA,NA,NA,NA,rot,yellow,g,0,NA,NA,NA,8,5,101,g,1,0.5248611997812986,sub-20312455
NA,NA,NA,NA,NA,NA,NA,gelb,yellow,g,1,NA,NA,NA,8,6,102,g,1,0.44249150017276406,sub-20312455
NA,NA,NA,NA,NA,NA,NA,rot,blue,b,0,NA,NA,NA,8,7,103,r,0,0.5026246001943946,sub-20312455
NA,NA,NA,NA,NA,NA,NA,blau,blue,b,1,NA,NA,NA,8,8,104,b,1,0.4760078000836074,sub-20312455
NA,NA,NA,NA,NA,NA,NA,blau,red,r,0,NA,NA,NA,8,9,105,r,1,0.8521224996075034,sub-20312455
NA,NA,NA,NA,NA,NA,NA,blau,blue,b,1,NA,NA,NA,8,10,106,b,1,0.46538810012862086,sub-20312455
NA,NA,NA,NA,NA,NA,NA,gelb,red,r,0,NA,NA,NA,8,11,107,r,1,0.8571704998612404,sub-20312455
NA,NA,NA,NA,NA,NA,NA,gelb,yellow,g,1,NA,NA,NA,9,0,108,g,1,0.591030600015074,sub-20312455
NA,NA,NA,NA,NA,NA,NA,blau,yellow,g,0,NA,NA,NA,9,1,109,g,1,0.4910138002596796,sub-20312455
NA,NA,NA,NA,NA,NA,NA,rot,blue,b,0,NA,NA,NA,9,2,110,b,1,0.6180988000705838,sub-20312455
NA,NA,NA,NA,NA,NA,NA,gelb,red,r,0,NA,NA,NA,9,3,111,r,1,0.6512809996493161,sub-20312455
NA,NA,NA,NA,NA,NA,NA,rot,yellow,g,0,NA,NA,NA,9,4,112,g,1,0.992753299884498,sub-20312455
NA,NA,NA,NA,NA,NA,NA,blau,blue,b,1,NA,NA,NA,9,5,113,b,1,0.6123838997446001,sub-20312455
NA,NA,NA,NA,NA,NA,NA,blau,red,r,0,NA,NA,NA,9,6,114,r,1,0.6588689996860921,sub-20312455
NA,NA,NA,NA,NA,NA,NA,gelb,blue,b,0,NA,NA,NA,9,7,115,b,1,0.5113192996941507,sub-20312455
NA,NA,NA,NA,NA,NA,NA,rot,red,r,1,NA,NA,NA,9,8,116,r,1,0.6216314998455346,sub-20312455
NA,NA,NA,NA,NA,NA,NA,blau,blue,b,1,NA,NA,NA,9,9,117,b,1,0.4751850999891758,sub-20312455
NA,NA,NA,NA,NA,NA,NA,rot,red,r,1,NA,NA,NA,9,10,118,r,1,0.5233149002306163,sub-20312455
NA,NA,NA,NA,NA,NA,NA,gelb,yellow,g,1,NA,NA,NA,9,11,119,g,1,0.47032730001956224,sub-20312455
NA,NA,NA,NA,NA,NA,NA,NA,NA,NA,NA,NA,NA,NA,NA,NA,NA,NA,NA,NA,sub-20312455
