wordCTK,colorCTK,corrAnsCTK,congruentCTK,wordPractice,colorPractice,congruentPractice,word,color,corrAns,congruent,trials_practice.thisRepN,trials_practice.thisTrialN,trials_practice.thisN,trials_test.thisRepN,trials_test.thisTrialN,trials_test.thisN,keyResp_test_run.keys,keyResp_test_run.corr,keyResp_test_run.rt,participant
NA,NA,NA,NA,NA,NA,NA,NA,NA,NA,NA,NA,NA,NA,NA,NA,NA,NA,NA,NA,sub-5081121
NA,NA,NA,NA,NA,NA,NA,NA,NA,NA,NA,NA,NA,NA,NA,NA,NA,NA,NA,NA,sub-5081121
test,blue,b,1,NA,NA,NA,NA,NA,NA,NA,NA,NA,NA,NA,NA,NA,NA,NA,NA,sub-5081121
test,yellow,g,1,NA,NA,NA,NA,NA,NA,NA,NA,NA,NA,NA,NA,NA,NA,NA,NA,sub-5081121
test,red,r,1,NA,NA,NA,NA,NA,NA,NA,NA,NA,NA,NA,NA,NA,NA,NA,NA,sub-5081121
test,yellow,g,1,NA,NA,NA,NA,NA,NA,NA,NA,NA,NA,NA,NA,NA,NA,NA,NA,sub-5081121
test,blue,b,1,NA,NA,NA,NA,NA,NA,NA,NA,NA,NA,NA,NA,NA,NA,NA,NA,sub-5081121
test,red,r,1,NA,NA,NA,NA,NA,NA,NA,NA,NA,NA,NA,NA,NA,NA,NA,NA,sub-5081121
test,blue,b,1,NA,NA,NA,NA,NA,NA,NA,NA,NA,NA,NA,NA,NA,NA,NA,NA,sub-5081121
test,yellow,g,1,NA,NA,NA,NA,NA,NA,NA,NA,NA,NA,NA,NA,NA,NA,NA,NA,sub-5081121
test,red,r,1,NA,NA,NA,NA,NA,NA,NA,NA,NA,NA,NA,NA,NA,NA,NA,NA,sub-5081121
test,yellow,g,1,NA,NA,NA,NA,NA,NA,NA,NA,NA,NA,NA,NA,NA,NA,NA,NA,sub-5081121
test,blue,b,1,NA,NA,NA,NA,NA,NA,NA,NA,NA,NA,NA,NA,NA,NA,NA,NA,sub-5081121
test,red,r,1,NA,NA,NA,NA,NA,NA,NA,NA,NA,NA,NA,NA,NA,NA,NA,NA,sub-5081121
NA,NA,NA,NA,NA,NA,NA,NA,NA,NA,NA,NA,NA,NA,NA,NA,NA,NA,NA,NA,sub-5081121
NA,NA,NA,NA,rot,red,1,NA,NA,NA,NA,0,0,0,NA,NA,NA,NA,NA,NA,sub-5081121
NA,NA,NA,NA,rot,blue,0,NA,NA,NA,NA,0,1,1,NA,NA,NA,NA,NA,NA,sub-5081121
NA,NA,NA,NA,gelb,yellow,1,NA,NA,NA,NA,0,2,2,NA,NA,NA,NA,NA,NA,sub-5081121
NA,NA,NA,NA,rot,yellow,0,NA,NA,NA,NA,0,3,3,NA,NA,NA,NA,NA,NA,sub-5081121
NA,NA,NA,NA,rot,red,1,NA,NA,NA,NA,0,4,4,NA,NA,NA,NA,NA,NA,sub-5081121
NA,NA,NA,NA,blau,blue,1,NA,NA,NA,NA,0,5,5,NA,NA,NA,NA,NA,NA,sub-5081121
NA,NA,NA,NA,gelb,yellow,1,NA,NA,NA,NA,0,6,6,NA,NA,NA,NA,NA,NA,sub-5081121
NA,NA,NA,NA,blau,yellow,0,NA,NA,NA,NA,0,7,7,NA,NA,NA,NA,NA,NA,sub-5081121
NA,NA,NA,NA,gelb,red,0,NA,NA,NA,NA,0,8,8,NA,NA,NA,NA,NA,NA,sub-5081121
NA,NA,NA,NA,blau,red,0,NA,NA,NA,NA,0,9,9,NA,NA,NA,NA,NA,NA,sub-5081121
NA,NA,NA,NA,gelb,blue,0,NA,NA,NA,NA,0,10,10,NA,NA,NA,NA,NA,NA,sub-5081121
NA,NA,NA,NA,blau,blue,1,NA,NA,NA,NA,0,11,11,NA,NA,NA,NA,NA,NA,sub-5081121
NA,NA,NA,NA,gelb,yellow,1,NA,NA,NA,NA,1,0,12,NA,NA,NA,NA,NA,NA,sub-5081121
NA,NA,NA,NA,rot,red,1,NA,NA,NA,NA,1,1,13,NA,NA,NA,NA,NA,NA,sub-5081121
NA,NA,NA,NA,gelb,red,0,NA,NA,NA,NA,1,2,14,NA,NA,NA,NA,NA,NA,sub-5081121
NA,NA,NA,NA,blau,red,0,NA,NA,NA,NA,1,3,15,NA,NA,NA,NA,NA,NA,sub-5081121
NA,NA,NA,NA,blau,blue,1,NA,NA,NA,NA,1,4,16,NA,NA,NA,NA,NA,NA,sub-5081121
NA,NA,NA,NA,rot,red,1,NA,NA,NA,NA,1,5,17,NA,NA,NA,NA,NA,NA,sub-5081121
NA,NA,NA,NA,blau,blue,1,NA,NA,NA,NA,1,6,18,NA,NA,NA,NA,NA,NA,sub-5081121
NA,NA,NA,NA,rot,yellow,0,NA,NA,NA,NA,1,7,19,NA,NA,NA,NA,NA,NA,sub-5081121
NA,NA,NA,NA,rot,blue,0,NA,NA,NA,NA,1,8,20,NA,NA,NA,NA,NA,NA,sub-5081121
NA,NA,NA,NA,gelb,blue,0,NA,NA,NA,NA,1,9,21,NA,NA,NA,NA,NA,NA,sub-5081121
NA,NA,NA,NA,blau,yellow,0,NA,NA,NA,NA,1,10,22,NA,NA,NA,NA,NA,NA,sub-5081121
NA,NA,NA,NA,gelb,yellow,1,NA,NA,NA,NA,1,11,23,NA,NA,NA,NA,NA,NA,sub-5081121
NA,NA,NA,NA,NA,NA,NA,NA,NA,NA,NA,NA,NA,NA,NA,NA,NA,NA,NA,NA,sub-5081121
NA,NA,NA,NA,NA,NA,NA,blau,blue,b,1,NA,NA,NA,0,0,0,b,1,1.7192607000033604,sub-5081121
NA,NA,NA,NA,NA,NA,NA,gelb,blue,b,0,NA,NA,NA,0,1,1,b,1,1.2399179000058211,sub-5081121
NA,NA,NA,NA,NA,NA,NA,rot,red,r,1,NA,NA,NA,0,2,2,r,1,1.4479175000014948,sub-5081121
NA,NA,NA,NA,NA,NA,NA,rot,blue,b,0,NA,NA,NA,0,3,3,b,1,1.2681054999993648,sub-5081121
NA,NA,NA,NA,NA,NA,NA,blau,yellow,g,0,NA,NA,NA,0,4,4,g,1,0.8623961999983294,sub-5081121
NA,NA,NA,NA,NA,NA,NA,rot,red,r,1,NA,NA,NA,0,5,5,r,1,1.0231608000030974,sub-5081121
NA,NA,NA,NA,NA,NA,NA,gelb,yellow,g,1,NA,NA,NA,0,6,6,g,1,1.318881600003806,sub-5081121
NA,NA,NA,NA,NA,NA,NA,blau,red,r,0,NA,NA,NA,0,7,7,r,1,1.1531423999986146,sub-5081121
NA,NA,NA,NA,NA,NA,NA,gelb,red,r,0,NA,NA,NA,0,8,8,r,1,1.2934933999931673,sub-5081121
NA,NA,NA,NA,NA,NA,NA,gelb,yellow,g,1,NA,NA,NA,0,9,9,g,1,1.2976189000037266,sub-5081121
NA,NA,NA,NA,NA,NA,NA,rot,yellow,g,0,NA,NA,NA,0,10,10,g,1,1.2338543999940157,sub-5081121
NA,NA,NA,NA,NA,NA,NA,blau,blue,b,1,NA,NA,NA,0,11,11,b,1,1.1655803000030571,sub-5081121
NA,NA,NA,NA,NA,NA,NA,rot,yellow,g,0,NA,NA,NA,1,0,12,g,1,1.012432899995474,sub-5081121
NA,NA,NA,NA,NA,NA,NA,rot,red,r,1,NA,NA,NA,1,1,13,r,1,0.8739001000067219,sub-5081121
NA,NA,NA,NA,NA,NA,NA,gelb,yellow,g,1,NA,NA,NA,1,2,14,g,1,0.8223132999992231,sub-5081121
NA,NA,NA,NA,NA,NA,NA,gelb,blue,b,0,NA,NA,NA,1,3,15,b,1,0.860998500007554,sub-5081121
NA,NA,NA,NA,NA,NA,NA,rot,blue,b,0,NA,NA,NA,1,4,16,b,1,1.0139873000007356,sub-5081121
NA,NA,NA,NA,NA,NA,NA,gelb,yellow,g,1,NA,NA,NA,1,5,17,g,1,0.8039423000009265,sub-5081121
NA,NA,NA,NA,NA,NA,NA,rot,red,r,1,NA,NA,NA,1,6,18,r,1,0.8511432000086643,sub-5081121
NA,NA,NA,NA,NA,NA,NA,blau,blue,b,1,NA,NA,NA,1,7,19,b,1,0.8898675999953412,sub-5081121
NA,NA,NA,NA,NA,NA,NA,blau,red,r,0,NA,NA,NA,1,8,20,r,1,1.0044978999940213,sub-5081121
NA,NA,NA,NA,NA,NA,NA,blau,yellow,g,0,NA,NA,NA,1,9,21,g,1,1.10830619999615,sub-5081121
NA,NA,NA,NA,NA,NA,NA,gelb,red,r,0,NA,NA,NA,1,10,22,r,1,1.0494153000036022,sub-5081121
NA,NA,NA,NA,NA,NA,NA,blau,blue,b,1,NA,NA,NA,1,11,23,b,1,0.8538526000047568,sub-5081121
NA,NA,NA,NA,NA,NA,NA,rot,yellow,g,0,NA,NA,NA,2,0,24,g,1,1.0463068999961251,sub-5081121
NA,NA,NA,NA,NA,NA,NA,rot,red,r,1,NA,NA,NA,2,1,25,r,1,0.7525861000031,sub-5081121
NA,NA,NA,NA,NA,NA,NA,gelb,blue,b,0,NA,NA,NA,2,2,26,b,1,1.401979600006598,sub-5081121
NA,NA,NA,NA,NA,NA,NA,blau,red,r,0,NA,NA,NA,2,3,27,r,1,0.9775080999970668,sub-5081121
NA,NA,NA,NA,NA,NA,NA,blau,yellow,g,0,NA,NA,NA,2,4,28,g,1,0.8544822999974713,sub-5081121
NA,NA,NA,NA,NA,NA,NA,blau,blue,b,1,NA,NA,NA,2,5,29,b,1,0.8568478000088362,sub-5081121
NA,NA,NA,NA,NA,NA,NA,blau,blue,b,1,NA,NA,NA,2,6,30,b,1,0.8966638000129024,sub-5081121
NA,NA,NA,NA,NA,NA,NA,rot,blue,b,0,NA,NA,NA,2,7,31,b,1,1.1707443000050262,sub-5081121
NA,NA,NA,NA,NA,NA,NA,gelb,yellow,g,1,NA,NA,NA,2,8,32,g,1,0.8666730999975698,sub-5081121
NA,NA,NA,NA,NA,NA,NA,rot,red,r,1,NA,NA,NA,2,9,33,r,1,1.0239199999923585,sub-5081121
NA,NA,NA,NA,NA,NA,NA,gelb,red,r,0,NA,NA,NA,2,10,34,r,1,0.9632305999984964,sub-5081121
NA,NA,NA,NA,NA,NA,NA,gelb,yellow,g,1,NA,NA,NA,2,11,35,g,1,0.8088233000016771,sub-5081121
NA,NA,NA,NA,NA,NA,NA,blau,red,r,0,NA,NA,NA,3,0,36,r,1,1.1946928999968804,sub-5081121
NA,NA,NA,NA,NA,NA,NA,rot,yellow,g,0,NA,NA,NA,3,1,37,g,1,0.934527999997954,sub-5081121
NA,NA,NA,NA,NA,NA,NA,gelb,yellow,g,1,NA,NA,NA,3,2,38,g,1,0.7877887000067858,sub-5081121
NA,NA,NA,NA,NA,NA,NA,blau,blue,b,1,NA,NA,NA,3,3,39,b,1,0.7474311999976635,sub-5081121
NA,NA,NA,NA,NA,NA,NA,gelb,blue,b,0,NA,NA,NA,3,4,40,b,1,1.0839188999962062,sub-5081121
NA,NA,NA,NA,NA,NA,NA,gelb,red,r,0,NA,NA,NA,3,5,41,r,1,0.9775884999980916,sub-5081121
NA,NA,NA,NA,NA,NA,NA,rot,red,r,1,NA,NA,NA,3,6,42,r,1,0.845093599986285,sub-5081121
NA,NA,NA,NA,NA,NA,NA,blau,blue,b,1,NA,NA,NA,3,7,43,b,1,0.8667130999965593,sub-5081121
NA,NA,NA,NA,NA,NA,NA,blau,yellow,g,0,NA,NA,NA,3,8,44,b,0,0.8056841000070563,sub-5081121
NA,NA,NA,NA,NA,NA,NA,rot,blue,b,0,NA,NA,NA,3,9,45,b,1,2.0025677000085125,sub-5081121
NA,NA,NA,NA,NA,NA,NA,rot,red,r,1,NA,NA,NA,3,10,46,r,1,0.7771630999923218,sub-5081121
NA,NA,NA,NA,NA,NA,NA,gelb,yellow,g,1,NA,NA,NA,3,11,47,g,1,1.0742626000137534,sub-5081121
NA,NA,NA,NA,NA,NA,NA,gelb,red,r,0,NA,NA,NA,4,0,48,r,1,0.7324763999931747,sub-5081121
NA,NA,NA,NA,NA,NA,NA,rot,yellow,g,0,NA,NA,NA,4,1,49,g,1,0.8859217999997782,sub-5081121
NA,NA,NA,NA,NA,NA,NA,rot,red,r,1,NA,NA,NA,4,2,50,r,1,1.1809218999987934,sub-5081121
NA,NA,NA,NA,NA,NA,NA,gelb,blue,b,0,NA,NA,NA,4,3,51,b,1,1.2427737999969397,sub-5081121
NA,NA,NA,NA,NA,NA,NA,blau,red,r,0,NA,NA,NA,4,4,52,r,1,1.691522499997518,sub-5081121
NA,NA,NA,NA,NA,NA,NA,rot,red,r,1,NA,NA,NA,4,5,53,r,1,1.1501147999952082,sub-5081121
NA,NA,NA,NA,NA,NA,NA,rot,blue,b,0,NA,NA,NA,4,6,54,b,1,0.9846324999962236,sub-5081121
NA,NA,NA,NA,NA,NA,NA,blau,blue,b,1,NA,NA,NA,4,7,55,b,1,1.1753249000030337,sub-5081121
NA,NA,NA,NA,NA,NA,NA,blau,blue,b,1,NA,NA,NA,4,8,56,b,1,0.8081944000005024,sub-5081121
NA,NA,NA,NA,NA,NA,NA,blau,yellow,g,0,NA,NA,NA,4,9,57,g,1,0.93194080000103,sub-5081121
NA,NA,NA,NA,NA,NA,NA,gelb,yellow,g,1,NA,NA,NA,4,10,58,g,1,0.9463063000002876,sub-5081121
NA,NA,NA,NA,NA,NA,NA,gelb,yellow,g,1,NA,NA,NA,4,11,59,g,1,0.8518648000026587,sub-5081121
NA,NA,NA,NA,NA,NA,NA,blau,blue,b,1,NA,NA,NA,5,0,60,b,1,0.8249654999963241,sub-5081121
NA,NA,NA,NA,NA,NA,NA,blau,blue,b,1,NA,NA,NA,5,1,61,b,1,0.8515386000071885,sub-5081121
NA,NA,NA,NA,NA,NA,NA,blau,red,r,0,NA,NA,NA,5,2,62,r,1,0.8438739999983227,sub-5081121
NA,NA,NA,NA,NA,NA,NA,blau,yellow,g,0,NA,NA,NA,5,3,63,g,1,1.0601987999980338,sub-5081121
NA,NA,NA,NA,NA,NA,NA,gelb,blue,b,0,NA,NA,NA,5,4,64,b,1,1.0871527999988757,sub-5081121
NA,NA,NA,NA,NA,NA,NA,gelb,yellow,g,1,NA,NA,NA,5,5,65,g,1,0.8819069000019226,sub-5081121
NA,NA,NA,NA,NA,NA,NA,rot,yellow,g,0,NA,NA,NA,5,6,66,g,1,1.0199285999988206,sub-5081121
NA,NA,NA,NA,NA,NA,NA,rot,red,r,1,NA,NA,NA,5,7,67,r,1,0.735420900004101,sub-5081121
NA,NA,NA,NA,NA,NA,NA,rot,red,r,1,NA,NA,NA,5,8,68,r,1,0.8173215999995591,sub-5081121
NA,NA,NA,NA,NA,NA,NA,rot,blue,b,0,NA,NA,NA,5,9,69,b,1,0.9990412000042852,sub-5081121
NA,NA,NA,NA,NA,NA,NA,gelb,red,r,0,NA,NA,NA,5,10,70,r,1,0.931915900000604,sub-5081121
NA,NA,NA,NA,NA,NA,NA,gelb,yellow,g,1,NA,NA,NA,5,11,71,g,1,0.8164206000074046,sub-5081121
NA,NA,NA,NA,NA,NA,NA,blau,yellow,g,0,NA,NA,NA,6,0,72,g,1,0.8534503999981098,sub-5081121
NA,NA,NA,NA,NA,NA,NA,gelb,yellow,g,1,NA,NA,NA,6,1,73,g,1,0.836657899999409,sub-5081121
NA,NA,NA,NA,NA,NA,NA,gelb,red,r,0,NA,NA,NA,6,2,74,r,1,0.9086000999959652,sub-5081121
NA,NA,NA,NA,NA,NA,NA,rot,yellow,g,0,NA,NA,NA,6,3,75,g,1,1.076373100004275,sub-5081121
NA,NA,NA,NA,NA,NA,NA,rot,red,r,1,NA,NA,NA,6,4,76,r,1,1.0170587000029627,sub-5081121
NA,NA,NA,NA,NA,NA,NA,blau,red,r,0,NA,NA,NA,6,5,77,r,1,1.1367762000008952,sub-5081121
NA,NA,NA,NA,NA,NA,NA,gelb,blue,b,0,NA,NA,NA,6,6,78,b,1,1.329995299995062,sub-5081121
NA,NA,NA,NA,NA,NA,NA,gelb,yellow,g,1,NA,NA,NA,6,7,79,g,1,0.8291857999865897,sub-5081121
NA,NA,NA,NA,NA,NA,NA,rot,blue,b,0,NA,NA,NA,6,8,80,b,1,1.0445338999998055,sub-5081121
NA,NA,NA,NA,NA,NA,NA,blau,blue,b,1,NA,NA,NA,6,9,81,b,1,0.7865771000069799,sub-5081121
NA,NA,NA,NA,NA,NA,NA,blau,blue,b,1,NA,NA,NA,6,10,82,b,1,0.7459033000050113,sub-5081121
NA,NA,NA,NA,NA,NA,NA,rot,red,r,1,NA,NA,NA,6,11,83,r,1,0.8461722000065492,sub-5081121
NA,NA,NA,NA,NA,NA,NA,blau,red,r,0,NA,NA,NA,7,0,84,r,1,1.2865151000005426,sub-5081121
NA,NA,NA,NA,NA,NA,NA,gelb,red,r,0,NA,NA,NA,7,1,85,r,1,1.1805730000050971,sub-5081121
NA,NA,NA,NA,NA,NA,NA,blau,yellow,g,0,NA,NA,NA,7,2,86,g,1,1.093215400003828,sub-5081121
NA,NA,NA,NA,NA,NA,NA,rot,red,r,1,NA,NA,NA,7,3,87,r,1,0.6835026999906404,sub-5081121
NA,NA,NA,NA,NA,NA,NA,rot,blue,b,0,NA,NA,NA,7,4,88,b,1,1.134065999998711,sub-5081121
NA,NA,NA,NA,NA,NA,NA,rot,red,r,1,NA,NA,NA,7,5,89,r,1,0.9700400000001536,sub-5081121
NA,NA,NA,NA,NA,NA,NA,rot,yellow,g,0,NA,NA,NA,7,6,90,g,1,0.9913242000038736,sub-5081121
NA,NA,NA,NA,NA,NA,NA,gelb,yellow,g,1,NA,NA,NA,7,7,91,g,1,1.187813299999107,sub-5081121
NA,NA,NA,NA,NA,NA,NA,blau,blue,b,1,NA,NA,NA,7,8,92,b,1,0.907188099998166,sub-5081121
NA,NA,NA,NA,NA,NA,NA,gelb,yellow,g,1,NA,NA,NA,7,9,93,g,1,1.17631640000036,sub-5081121
NA,NA,NA,NA,NA,NA,NA,gelb,blue,b,0,NA,NA,NA,7,10,94,b,1,1.23550750000868,sub-5081121
NA,NA,NA,NA,NA,NA,NA,blau,blue,b,1,NA,NA,NA,7,11,95,b,1,0.8499632000020938,sub-5081121
NA,NA,NA,NA,NA,NA,NA,rot,red,r,1,NA,NA,NA,8,0,96,r,1,0.7468871000019135,sub-5081121
NA,NA,NA,NA,NA,NA,NA,gelb,yellow,g,1,NA,NA,NA,8,1,97,g,1,0.8374566999991657,sub-5081121
NA,NA,NA,NA,NA,NA,NA,rot,blue,b,0,NA,NA,NA,8,2,98,b,1,0.9799407999962568,sub-5081121
NA,NA,NA,NA,NA,NA,NA,blau,blue,b,1,NA,NA,NA,8,3,99,b,1,0.9819688999996288,sub-5081121
NA,NA,NA,NA,NA,NA,NA,rot,red,r,1,NA,NA,NA,8,4,100,r,1,0.8693502999958582,sub-5081121
NA,NA,NA,NA,NA,NA,NA,blau,red,r,0,NA,NA,NA,8,5,101,r,1,1.4217740000021877,sub-5081121
NA,NA,NA,NA,NA,NA,NA,rot,yellow,g,0,NA,NA,NA,8,6,102,g,1,0.8668136999913258,sub-5081121
NA,NA,NA,NA,NA,NA,NA,blau,blue,b,1,NA,NA,NA,8,7,103,b,1,0.8995461000013165,sub-5081121
NA,NA,NA,NA,NA,NA,NA,gelb,yellow,g,1,NA,NA,NA,8,8,104,g,1,0.8497598999965703,sub-5081121
NA,NA,NA,NA,NA,NA,NA,gelb,blue,b,0,NA,NA,NA,8,9,105,b,1,1.0236567000101786,sub-5081121
NA,NA,NA,NA,NA,NA,NA,blau,yellow,g,0,NA,NA,NA,8,10,106,g,1,0.9557390999980272,sub-5081121
NA,NA,NA,NA,NA,NA,NA,gelb,red,r,0,NA,NA,NA,8,11,107,r,1,0.7457635999890044,sub-5081121
NA,NA,NA,NA,NA,NA,NA,blau,blue,b,1,NA,NA,NA,9,0,108,b,1,0.7924966999999015,sub-5081121
NA,NA,NA,NA,NA,NA,NA,gelb,yellow,g,1,NA,NA,NA,9,1,109,g,1,0.7968844999995781,sub-5081121
NA,NA,NA,NA,NA,NA,NA,gelb,blue,b,0,NA,NA,NA,9,2,110,b,1,0.894304600005853,sub-5081121
NA,NA,NA,NA,NA,NA,NA,rot,red,r,1,NA,NA,NA,9,3,111,r,1,0.7669725999876391,sub-5081121
NA,NA,NA,NA,NA,NA,NA,rot,yellow,g,0,NA,NA,NA,9,4,112,g,1,0.949255200001062,sub-5081121
NA,NA,NA,NA,NA,NA,NA,blau,red,r,0,NA,NA,NA,9,5,113,r,1,1.0174621999904048,sub-5081121
NA,NA,NA,NA,NA,NA,NA,blau,yellow,g,0,NA,NA,NA,9,6,114,g,1,0.8492794999910984,sub-5081121
NA,NA,NA,NA,NA,NA,NA,blau,blue,b,1,NA,NA,NA,9,7,115,b,1,0.9194922000024236,sub-5081121
NA,NA,NA,NA,NA,NA,NA,gelb,red,r,0,NA,NA,NA,9,8,116,r,1,0.8583068000007188,sub-5081121
NA,NA,NA,NA,NA,NA,NA,gelb,yellow,g,1,NA,NA,NA,9,9,117,g,1,1.087720299998182,sub-5081121
NA,NA,NA,NA,NA,NA,NA,rot,blue,b,0,NA,NA,NA,9,10,118,b,1,0.9932833000057144,sub-5081121
NA,NA,NA,NA,NA,NA,NA,rot,red,r,1,NA,NA,NA,9,11,119,r,1,0.7644605000095908,sub-5081121
NA,NA,NA,NA,NA,NA,NA,NA,NA,NA,NA,NA,NA,NA,NA,NA,NA,NA,NA,NA,sub-5081121
