wordCTK,colorCTK,corrAnsCTK,congruentCTK,wordPractice,colorPractice,congruentPractice,word,color,corrAns,congruent,trials_practice.thisRepN,trials_practice.thisTrialN,trials_practice.thisN,trials_test.thisRepN,trials_test.thisTrialN,trials_test.thisN,keyResp_test_run.keys,keyResp_test_run.corr,keyResp_test_run.rt,participant
NA,NA,NA,NA,NA,NA,NA,NA,NA,NA,NA,NA,NA,NA,NA,NA,NA,NA,NA,NA,sub-66418555
NA,NA,NA,NA,NA,NA,NA,NA,NA,NA,NA,NA,NA,NA,NA,NA,NA,NA,NA,NA,sub-66418555
test,blue,b,1,NA,NA,NA,NA,NA,NA,NA,NA,NA,NA,NA,NA,NA,NA,NA,NA,sub-66418555
test,yellow,g,1,NA,NA,NA,NA,NA,NA,NA,NA,NA,NA,NA,NA,NA,NA,NA,NA,sub-66418555
test,red,r,1,NA,NA,NA,NA,NA,NA,NA,NA,NA,NA,NA,NA,NA,NA,NA,NA,sub-66418555
test,yellow,g,1,NA,NA,NA,NA,NA,NA,NA,NA,NA,NA,NA,NA,NA,NA,NA,NA,sub-66418555
test,red,r,1,NA,NA,NA,NA,NA,NA,NA,NA,NA,NA,NA,NA,NA,NA,NA,NA,sub-66418555
test,blue,b,1,NA,NA,NA,NA,NA,NA,NA,NA,NA,NA,NA,NA,NA,NA,NA,NA,sub-66418555
test,yellow,g,1,NA,NA,NA,NA,NA,NA,NA,NA,NA,NA,NA,NA,NA,NA,NA,NA,sub-66418555
test,red,r,1,NA,NA,NA,NA,NA,NA,NA,NA,NA,NA,NA,NA,NA,NA,NA,NA,sub-66418555
test,blue,b,1,NA,NA,NA,NA,NA,NA,NA,NA,NA,NA,NA,NA,NA,NA,NA,NA,sub-66418555
test,yellow,g,1,NA,NA,NA,NA,NA,NA,NA,NA,NA,NA,NA,NA,NA,NA,NA,NA,sub-66418555
test,blue,b,1,NA,NA,NA,NA,NA,NA,NA,NA,NA,NA,NA,NA,NA,NA,NA,NA,sub-66418555
test,red,r,1,NA,NA,NA,NA,NA,NA,NA,NA,NA,NA,NA,NA,NA,NA,NA,NA,sub-66418555
NA,NA,NA,NA,NA,NA,NA,NA,NA,NA,NA,NA,NA,NA,NA,NA,NA,NA,NA,NA,sub-66418555
NA,NA,NA,NA,gelb,yellow,1,NA,NA,NA,NA,0,0,0,NA,NA,NA,NA,NA,NA,sub-66418555
NA,NA,NA,NA,blau,blue,1,NA,NA,NA,NA,0,1,1,NA,NA,NA,NA,NA,NA,sub-66418555
NA,NA,NA,NA,gelb,yellow,1,NA,NA,NA,NA,0,2,2,NA,NA,NA,NA,NA,NA,sub-66418555
NA,NA,NA,NA,rot,yellow,0,NA,NA,NA,NA,0,3,3,NA,NA,NA,NA,NA,NA,sub-66418555
NA,NA,NA,NA,gelb,red,0,NA,NA,NA,NA,0,4,4,NA,NA,NA,NA,NA,NA,sub-66418555
NA,NA,NA,NA,blau,red,0,NA,NA,NA,NA,0,5,5,NA,NA,NA,NA,NA,NA,sub-66418555
NA,NA,NA,NA,rot,red,1,NA,NA,NA,NA,0,6,6,NA,NA,NA,NA,NA,NA,sub-66418555
NA,NA,NA,NA,blau,yellow,0,NA,NA,NA,NA,0,7,7,NA,NA,NA,NA,NA,NA,sub-66418555
NA,NA,NA,NA,blau,blue,1,NA,NA,NA,NA,0,8,8,NA,NA,NA,NA,NA,NA,sub-66418555
NA,NA,NA,NA,rot,red,1,NA,NA,NA,NA,0,9,9,NA,NA,NA,NA,NA,NA,sub-66418555
NA,NA,NA,NA,gelb,blue,0,NA,NA,NA,NA,0,10,10,NA,NA,NA,NA,NA,NA,sub-66418555
NA,NA,NA,NA,rot,blue,0,NA,NA,NA,NA,0,11,11,NA,NA,NA,NA,NA,NA,sub-66418555
NA,NA,NA,NA,rot,yellow,0,NA,NA,NA,NA,1,0,12,NA,NA,NA,NA,NA,NA,sub-66418555
NA,NA,NA,NA,gelb,yellow,1,NA,NA,NA,NA,1,1,13,NA,NA,NA,NA,NA,NA,sub-66418555
NA,NA,NA,NA,blau,blue,1,NA,NA,NA,NA,1,2,14,NA,NA,NA,NA,NA,NA,sub-66418555
NA,NA,NA,NA,rot,red,1,NA,NA,NA,NA,1,3,15,NA,NA,NA,NA,NA,NA,sub-66418555
NA,NA,NA,NA,blau,red,0,NA,NA,NA,NA,1,4,16,NA,NA,NA,NA,NA,NA,sub-66418555
NA,NA,NA,NA,rot,blue,0,NA,NA,NA,NA,1,5,17,NA,NA,NA,NA,NA,NA,sub-66418555
NA,NA,NA,NA,rot,red,1,NA,NA,NA,NA,1,6,18,NA,NA,NA,NA,NA,NA,sub-66418555
NA,NA,NA,NA,gelb,yellow,1,NA,NA,NA,NA,1,7,19,NA,NA,NA,NA,NA,NA,sub-66418555
NA,NA,NA,NA,blau,blue,1,NA,NA,NA,NA,1,8,20,NA,NA,NA,NA,NA,NA,sub-66418555
NA,NA,NA,NA,gelb,blue,0,NA,NA,NA,NA,1,9,21,NA,NA,NA,NA,NA,NA,sub-66418555
NA,NA,NA,NA,blau,yellow,0,NA,NA,NA,NA,1,10,22,NA,NA,NA,NA,NA,NA,sub-66418555
NA,NA,NA,NA,gelb,red,0,NA,NA,NA,NA,1,11,23,NA,NA,NA,NA,NA,NA,sub-66418555
NA,NA,NA,NA,NA,NA,NA,NA,NA,NA,NA,NA,NA,NA,NA,NA,NA,NA,NA,NA,sub-66418555
NA,NA,NA,NA,NA,NA,NA,gelb,blue,b,0,NA,NA,NA,0,0,0,b,1,1.0036024000000907,sub-66418555
NA,NA,NA,NA,NA,NA,NA,blau,yellow,g,0,NA,NA,NA,0,1,1,g,1,0.8798067000025185,sub-66418555
NA,NA,NA,NA,NA,NA,NA,gelb,yellow,g,1,NA,NA,NA,0,2,2,g,1,0.9091072999872268,sub-66418555
NA,NA,NA,NA,NA,NA,NA,gelb,red,r,0,NA,NA,NA,0,3,3,r,1,0.8359030999999959,sub-66418555
NA,NA,NA,NA,NA,NA,NA,rot,red,r,1,NA,NA,NA,0,4,4,r,1,0.7587076000054367,sub-66418555
NA,NA,NA,NA,NA,NA,NA,gelb,yellow,g,1,NA,NA,NA,0,5,5,g,1,0.9965403000096558,sub-66418555
NA,NA,NA,NA,NA,NA,NA,blau,blue,b,1,NA,NA,NA,0,6,6,b,1,0.8539646999997785,sub-66418555
NA,NA,NA,NA,NA,NA,NA,blau,blue,b,1,NA,NA,NA,0,7,7,b,1,0.5711963000067044,sub-66418555
NA,NA,NA,NA,NA,NA,NA,rot,yellow,g,0,NA,NA,NA,0,8,8,g,1,1.0118124000000537,sub-66418555
NA,NA,NA,NA,NA,NA,NA,blau,red,r,0,NA,NA,NA,0,9,9,r,1,1.069836700000451,sub-66418555
NA,NA,NA,NA,NA,NA,NA,rot,red,r,1,NA,NA,NA,0,10,10,r,1,1.4310031000059098,sub-66418555
NA,NA,NA,NA,NA,NA,NA,rot,blue,b,0,NA,NA,NA,0,11,11,b,1,1.1685776000085752,sub-66418555
NA,NA,NA,NA,NA,NA,NA,blau,blue,b,1,NA,NA,NA,1,0,12,b,1,1.2168359000061173,sub-66418555
NA,NA,NA,NA,NA,NA,NA,blau,red,r,0,NA,NA,NA,1,1,13,r,1,0.8498822000110522,sub-66418555
NA,NA,NA,NA,NA,NA,NA,blau,blue,b,1,NA,NA,NA,1,2,14,b,1,1.212280899999314,sub-66418555
NA,NA,NA,NA,NA,NA,NA,blau,yellow,g,0,NA,NA,NA,1,3,15,g,1,0.8989243999967584,sub-66418555
NA,NA,NA,NA,NA,NA,NA,gelb,red,r,0,NA,NA,NA,1,4,16,r,1,0.9523115000047256,sub-66418555
NA,NA,NA,NA,NA,NA,NA,rot,blue,b,0,NA,NA,NA,1,5,17,b,1,1.0248984999925597,sub-66418555
NA,NA,NA,NA,NA,NA,NA,rot,red,r,1,NA,NA,NA,1,6,18,r,1,0.8157330000103684,sub-66418555
NA,NA,NA,NA,NA,NA,NA,gelb,blue,b,0,NA,NA,NA,1,7,19,b,1,0.8874512999900617,sub-66418555
NA,NA,NA,NA,NA,NA,NA,gelb,yellow,g,1,NA,NA,NA,1,8,20,g,1,0.8681135999941034,sub-66418555
NA,NA,NA,NA,NA,NA,NA,gelb,yellow,g,1,NA,NA,NA,1,9,21,g,1,0.5862890999997035,sub-66418555
NA,NA,NA,NA,NA,NA,NA,rot,yellow,g,0,NA,NA,NA,1,10,22,g,1,1.34335419999843,sub-66418555
NA,NA,NA,NA,NA,NA,NA,rot,red,r,1,NA,NA,NA,1,11,23,r,1,0.8260949999967124,sub-66418555
NA,NA,NA,NA,NA,NA,NA,rot,yellow,g,0,NA,NA,NA,2,0,24,g,1,1.2093734000081895,sub-66418555
NA,NA,NA,NA,NA,NA,NA,blau,blue,b,1,NA,NA,NA,2,1,25,b,1,0.7396644999971613,sub-66418555
NA,NA,NA,NA,NA,NA,NA,rot,red,r,1,NA,NA,NA,2,2,26,r,1,1.30927279999014,sub-66418555
NA,NA,NA,NA,NA,NA,NA,blau,blue,b,1,NA,NA,NA,2,3,27,b,1,0.8269182000076398,sub-66418555
NA,NA,NA,NA,NA,NA,NA,rot,blue,b,0,NA,NA,NA,2,4,28,b,1,1.0610881000029622,sub-66418555
NA,NA,NA,NA,NA,NA,NA,blau,red,r,0,NA,NA,NA,2,5,29,r,1,0.8147500000050059,sub-66418555
NA,NA,NA,NA,NA,NA,NA,gelb,red,r,0,NA,NA,NA,2,6,30,r,1,0.82682480000949,sub-66418555
NA,NA,NA,NA,NA,NA,NA,gelb,yellow,g,1,NA,NA,NA,2,7,31,g,1,0.7822389999928419,sub-66418555
NA,NA,NA,NA,NA,NA,NA,gelb,yellow,g,1,NA,NA,NA,2,8,32,g,1,0.9247912999999244,sub-66418555
NA,NA,NA,NA,NA,NA,NA,rot,red,r,1,NA,NA,NA,2,9,33,r,1,0.7118034000013722,sub-66418555
NA,NA,NA,NA,NA,NA,NA,blau,yellow,g,0,NA,NA,NA,2,10,34,g,1,0.8818867000081809,sub-66418555
NA,NA,NA,NA,NA,NA,NA,gelb,blue,b,0,NA,NA,NA,2,11,35,b,1,0.7649270999972941,sub-66418555
NA,NA,NA,NA,NA,NA,NA,blau,red,r,0,NA,NA,NA,3,0,36,r,1,1.2091336000012234,sub-66418555
NA,NA,NA,NA,NA,NA,NA,gelb,red,r,0,NA,NA,NA,3,1,37,r,1,0.7278164000017568,sub-66418555
NA,NA,NA,NA,NA,NA,NA,gelb,blue,b,0,NA,NA,NA,3,2,38,b,1,0.8010062999965157,sub-66418555
NA,NA,NA,NA,NA,NA,NA,rot,red,r,1,NA,NA,NA,3,3,39,r,1,0.8090969000040786,sub-66418555
NA,NA,NA,NA,NA,NA,NA,gelb,yellow,g,1,NA,NA,NA,3,4,40,g,1,0.7733027000067523,sub-66418555
NA,NA,NA,NA,NA,NA,NA,rot,yellow,g,0,NA,NA,NA,3,5,41,g,1,1.3365902000077767,sub-66418555
NA,NA,NA,NA,NA,NA,NA,gelb,yellow,g,1,NA,NA,NA,3,6,42,g,1,0.8143621999915922,sub-66418555
NA,NA,NA,NA,NA,NA,NA,blau,blue,b,1,NA,NA,NA,3,7,43,b,1,0.7379283000045689,sub-66418555
NA,NA,NA,NA,NA,NA,NA,rot,red,r,1,NA,NA,NA,3,8,44,r,1,0.8772207000001799,sub-66418555
NA,NA,NA,NA,NA,NA,NA,blau,blue,b,1,NA,NA,NA,3,9,45,b,1,0.8727169000048889,sub-66418555
NA,NA,NA,NA,NA,NA,NA,blau,yellow,g,0,NA,NA,NA,3,10,46,g,1,0.7675018000009004,sub-66418555
NA,NA,NA,NA,NA,NA,NA,rot,blue,b,0,NA,NA,NA,3,11,47,b,1,0.9110536000080174,sub-66418555
NA,NA,NA,NA,NA,NA,NA,rot,red,r,1,NA,NA,NA,4,0,48,r,1,0.8409831000026315,sub-66418555
NA,NA,NA,NA,NA,NA,NA,blau,red,r,0,NA,NA,NA,4,1,49,r,1,0.7550982000102522,sub-66418555
NA,NA,NA,NA,NA,NA,NA,gelb,red,r,0,NA,NA,NA,4,2,50,r,1,1.1628809999965597,sub-66418555
NA,NA,NA,NA,NA,NA,NA,rot,yellow,g,0,NA,NA,NA,4,3,51,g,1,0.9794492999935756,sub-66418555
NA,NA,NA,NA,NA,NA,NA,blau,blue,b,1,NA,NA,NA,4,4,52,b,1,0.6415350000024773,sub-66418555
NA,NA,NA,NA,NA,NA,NA,blau,blue,b,1,NA,NA,NA,4,5,53,b,1,0.5554908999911277,sub-66418555
NA,NA,NA,NA,NA,NA,NA,gelb,blue,b,0,NA,NA,NA,4,6,54,b,1,0.45515370000794064,sub-66418555
NA,NA,NA,NA,NA,NA,NA,rot,blue,b,0,NA,NA,NA,4,7,55,b,1,0.6482683000067482,sub-66418555
NA,NA,NA,NA,NA,NA,NA,rot,red,r,1,NA,NA,NA,4,8,56,r,1,0.9619379000068876,sub-66418555
NA,NA,NA,NA,NA,NA,NA,blau,yellow,g,0,NA,NA,NA,4,9,57,g,1,1.0147852999944007,sub-66418555
NA,NA,NA,NA,NA,NA,NA,gelb,yellow,g,1,NA,NA,NA,4,10,58,g,1,0.7662597000016831,sub-66418555
NA,NA,NA,NA,NA,NA,NA,gelb,yellow,g,1,NA,NA,NA,4,11,59,g,1,0.45519290000083856,sub-66418555
NA,NA,NA,NA,NA,NA,NA,blau,yellow,g,0,NA,NA,NA,5,0,60,g,1,0.6915743999998085,sub-66418555
NA,NA,NA,NA,NA,NA,NA,gelb,yellow,g,1,NA,NA,NA,5,1,61,g,1,0.7245140000013635,sub-66418555
NA,NA,NA,NA,NA,NA,NA,rot,blue,b,0,NA,NA,NA,5,2,62,b,1,1.0285822000005282,sub-66418555
NA,NA,NA,NA,NA,NA,NA,gelb,blue,b,0,NA,NA,NA,5,3,63,b,1,0.460011699993629,sub-66418555
NA,NA,NA,NA,NA,NA,NA,rot,yellow,g,0,NA,NA,NA,5,4,64,g,1,0.9686919000087072,sub-66418555
NA,NA,NA,NA,NA,NA,NA,rot,red,r,1,NA,NA,NA,5,5,65,r,1,0.8889065999974264,sub-66418555
NA,NA,NA,NA,NA,NA,NA,blau,blue,b,1,NA,NA,NA,5,6,66,b,1,1.2253991000034148,sub-66418555
NA,NA,NA,NA,NA,NA,NA,gelb,yellow,g,1,NA,NA,NA,5,7,67,g,1,0.9159336000011536,sub-66418555
NA,NA,NA,NA,NA,NA,NA,rot,red,r,1,NA,NA,NA,5,8,68,r,1,1.0145948000135832,sub-66418555
NA,NA,NA,NA,NA,NA,NA,blau,red,r,0,NA,NA,NA,5,9,69,r,1,1.1024272999929965,sub-66418555
NA,NA,NA,NA,NA,NA,NA,gelb,red,r,0,NA,NA,NA,5,10,70,r,1,0.830064299996593,sub-66418555
NA,NA,NA,NA,NA,NA,NA,blau,blue,b,1,NA,NA,NA,5,11,71,b,1,1.0503151999873808,sub-66418555
NA,NA,NA,NA,NA,NA,NA,rot,red,r,1,NA,NA,NA,6,0,72,r,1,0.8906654000020353,sub-66418555
NA,NA,NA,NA,NA,NA,NA,blau,blue,b,1,NA,NA,NA,6,1,73,b,1,0.837909399997443,sub-66418555
NA,NA,NA,NA,NA,NA,NA,rot,red,r,1,NA,NA,NA,6,2,74,r,1,0.9265501000045332,sub-66418555
NA,NA,NA,NA,NA,NA,NA,gelb,yellow,g,1,NA,NA,NA,6,3,75,g,1,1.3247594999993453,sub-66418555
NA,NA,NA,NA,NA,NA,NA,gelb,blue,b,0,NA,NA,NA,6,4,76,b,1,1.9894171000050849,sub-66418555
NA,NA,NA,NA,NA,NA,NA,rot,yellow,g,0,NA,NA,NA,6,5,77,g,1,0.9772110000048996,sub-66418555
NA,NA,NA,NA,NA,NA,NA,blau,yellow,g,0,NA,NA,NA,6,6,78,g,1,1.3628129999997327,sub-66418555
NA,NA,NA,NA,NA,NA,NA,gelb,red,r,0,NA,NA,NA,6,7,79,r,1,0.8148486999998568,sub-66418555
NA,NA,NA,NA,NA,NA,NA,rot,blue,b,0,NA,NA,NA,6,8,80,b,1,1.1881862000009278,sub-66418555
NA,NA,NA,NA,NA,NA,NA,gelb,yellow,g,1,NA,NA,NA,6,9,81,g,1,0.9184165000042412,sub-66418555
NA,NA,NA,NA,NA,NA,NA,blau,blue,b,1,NA,NA,NA,6,10,82,b,1,1.0130199999985052,sub-66418555
NA,NA,NA,NA,NA,NA,NA,blau,red,r,0,NA,NA,NA,6,11,83,r,1,1.0933560999983456,sub-66418555
NA,NA,NA,NA,NA,NA,NA,gelb,red,r,0,NA,NA,NA,7,0,84,r,1,0.8487697999953525,sub-66418555
NA,NA,NA,NA,NA,NA,NA,rot,blue,b,0,NA,NA,NA,7,1,85,b,1,1.2798125999979677,sub-66418555
NA,NA,NA,NA,NA,NA,NA,blau,blue,b,1,NA,NA,NA,7,2,86,b,1,0.5005845999985468,sub-66418555
NA,NA,NA,NA,NA,NA,NA,rot,red,r,1,NA,NA,NA,7,3,87,r,1,0.7579829000023892,sub-66418555
NA,NA,NA,NA,NA,NA,NA,rot,red,r,1,NA,NA,NA,7,4,88,r,1,0.7965475999953924,sub-66418555
NA,NA,NA,NA,NA,NA,NA,gelb,yellow,g,1,NA,NA,NA,7,5,89,g,1,0.8854955999995582,sub-66418555
NA,NA,NA,NA,NA,NA,NA,blau,yellow,g,0,NA,NA,NA,7,6,90,g,1,0.979260099993553,sub-66418555
NA,NA,NA,NA,NA,NA,NA,gelb,yellow,g,1,NA,NA,NA,7,7,91,g,1,0.4648723999998765,sub-66418555
NA,NA,NA,NA,NA,NA,NA,blau,blue,b,1,NA,NA,NA,7,8,92,b,1,1.1750820000015665,sub-66418555
NA,NA,NA,NA,NA,NA,NA,rot,yellow,g,0,NA,NA,NA,7,9,93,g,1,1.026421799993841,sub-66418555
NA,NA,NA,NA,NA,NA,NA,gelb,blue,b,0,NA,NA,NA,7,10,94,b,1,1.1239865999959875,sub-66418555
NA,NA,NA,NA,NA,NA,NA,blau,red,r,0,NA,NA,NA,7,11,95,r,1,1.1181777000019792,sub-66418555
NA,NA,NA,NA,NA,NA,NA,gelb,yellow,g,1,NA,NA,NA,8,0,96,g,1,0.9514631000056396,sub-66418555
NA,NA,NA,NA,NA,NA,NA,rot,yellow,g,0,NA,NA,NA,8,1,97,g,1,0.9618303000024752,sub-66418555
NA,NA,NA,NA,NA,NA,NA,gelb,red,r,0,NA,NA,NA,8,2,98,r,1,0.9790355000004638,sub-66418555
NA,NA,NA,NA,NA,NA,NA,blau,red,r,0,NA,NA,NA,8,3,99,r,1,1.178748500009533,sub-66418555
NA,NA,NA,NA,NA,NA,NA,rot,red,r,1,NA,NA,NA,8,4,100,r,1,0.8457360000029439,sub-66418555
NA,NA,NA,NA,NA,NA,NA,gelb,yellow,g,1,NA,NA,NA,8,5,101,g,1,0.8632863999955589,sub-66418555
NA,NA,NA,NA,NA,NA,NA,gelb,blue,b,0,NA,NA,NA,8,6,102,b,1,1.1120745000080206,sub-66418555
NA,NA,NA,NA,NA,NA,NA,rot,blue,b,0,NA,NA,NA,8,7,103,b,1,1.0661743999953617,sub-66418555
NA,NA,NA,NA,NA,NA,NA,blau,blue,b,1,NA,NA,NA,8,8,104,b,1,0.9734336999972584,sub-66418555
NA,NA,NA,NA,NA,NA,NA,rot,red,r,1,NA,NA,NA,8,9,105,r,1,0.8732042999909027,sub-66418555
NA,NA,NA,NA,NA,NA,NA,blau,blue,b,1,NA,NA,NA,8,10,106,b,1,0.978385200010962,sub-66418555
NA,NA,NA,NA,NA,NA,NA,blau,yellow,g,0,NA,NA,NA,8,11,107,g,1,0.9037257000018144,sub-66418555
NA,NA,NA,NA,NA,NA,NA,rot,red,r,1,NA,NA,NA,9,0,108,r,1,0.887165099993581,sub-66418555
NA,NA,NA,NA,NA,NA,NA,rot,blue,b,0,NA,NA,NA,9,1,109,b,1,1.1556588999956148,sub-66418555
NA,NA,NA,NA,NA,NA,NA,blau,yellow,g,0,NA,NA,NA,9,2,110,g,1,0.8766870999970706,sub-66418555
NA,NA,NA,NA,NA,NA,NA,gelb,yellow,g,1,NA,NA,NA,9,3,111,g,1,0.9651032000110716,sub-66418555
NA,NA,NA,NA,NA,NA,NA,gelb,yellow,g,1,NA,NA,NA,9,4,112,g,1,0.5790114999981597,sub-66418555
NA,NA,NA,NA,NA,NA,NA,blau,blue,b,1,NA,NA,NA,9,5,113,b,1,0.8472859000030439,sub-66418555
NA,NA,NA,NA,NA,NA,NA,blau,blue,b,1,NA,NA,NA,9,6,114,b,1,0.9458837999991374,sub-66418555
NA,NA,NA,NA,NA,NA,NA,rot,yellow,g,0,NA,NA,NA,9,7,115,g,1,0.8697416000068188,sub-66418555
NA,NA,NA,NA,NA,NA,NA,gelb,red,r,0,NA,NA,NA,9,8,116,r,1,0.9823284000012792,sub-66418555
NA,NA,NA,NA,NA,NA,NA,rot,red,r,1,NA,NA,NA,9,9,117,r,1,0.810547700006282,sub-66418555
NA,NA,NA,NA,NA,NA,NA,gelb,blue,b,0,NA,NA,NA,9,10,118,b,1,1.1944168000045463,sub-66418555
NA,NA,NA,NA,NA,NA,NA,blau,red,r,0,NA,NA,NA,9,11,119,r,1,1.177260500000557,sub-66418555
NA,NA,NA,NA,NA,NA,NA,NA,NA,NA,NA,NA,NA,NA,NA,NA,NA,NA,NA,NA,sub-66418555
