wordCTK,colorCTK,corrAnsCTK,congruentCTK,wordPractice,colorPractice,congruentPractice,word,color,corrAns,congruent,trials_practice.thisRepN,trials_practice.thisTrialN,trials_practice.thisN,trials_test.thisRepN,trials_test.thisTrialN,trials_test.thisN,keyResp_test_run.keys,keyResp_test_run.corr,keyResp_test_run.rt,participant
NA,NA,NA,NA,NA,NA,NA,NA,NA,NA,NA,NA,NA,NA,NA,NA,NA,NA,NA,NA,sub-94467335
NA,NA,NA,NA,NA,NA,NA,NA,NA,NA,NA,NA,NA,NA,NA,NA,NA,NA,NA,NA,sub-94467335
test,blue,b,1,NA,NA,NA,NA,NA,NA,NA,NA,NA,NA,NA,NA,NA,NA,NA,NA,sub-94467335
test,red,r,1,NA,NA,NA,NA,NA,NA,NA,NA,NA,NA,NA,NA,NA,NA,NA,NA,sub-94467335
test,yellow,g,1,NA,NA,NA,NA,NA,NA,NA,NA,NA,NA,NA,NA,NA,NA,NA,NA,sub-94467335
test,red,r,1,NA,NA,NA,NA,NA,NA,NA,NA,NA,NA,NA,NA,NA,NA,NA,NA,sub-94467335
test,yellow,g,1,NA,NA,NA,NA,NA,NA,NA,NA,NA,NA,NA,NA,NA,NA,NA,NA,sub-94467335
test,blue,b,1,NA,NA,NA,NA,NA,NA,NA,NA,NA,NA,NA,NA,NA,NA,NA,NA,sub-94467335
test,yellow,g,1,NA,NA,NA,NA,NA,NA,NA,NA,NA,NA,NA,NA,NA,NA,NA,NA,sub-94467335
test,blue,b,1,NA,NA,NA,NA,NA,NA,NA,NA,NA,NA,NA,NA,NA,NA,NA,NA,sub-94467335
test,red,r,1,NA,NA,NA,NA,NA,NA,NA,NA,NA,NA,NA,NA,NA,NA,NA,NA,sub-94467335
test,blue,b,1,NA,NA,NA,NA,NA,NA,NA,NA,NA,NA,NA,NA,NA,NA,NA,NA,sub-94467335
test,red,r,1,NA,NA,NA,NA,NA,NA,NA,NA,NA,NA,NA,NA,NA,NA,NA,NA,sub-94467335
test,yellow,g,1,NA,NA,NA,NA,NA,NA,NA,NA,NA,NA,NA,NA,NA,NA,NA,NA,sub-94467335
NA,NA,NA,NA,NA,NA,NA,NA,NA,NA,NA,NA,NA,NA,NA,NA,NA,NA,NA,NA,sub-94467335
NA,NA,NA,NA,gelb,red,0,NA,NA,NA,NA,0,0,0,NA,NA,NA,NA,NA,NA,sub-94467335
NA,NA,NA,NA,gelb,blue,0,NA,NA,NA,NA,0,1,1,NA,NA,NA,NA,NA,NA,sub-94467335
NA,NA,NA,NA,gelb,yellow,1,NA,NA,NA,NA,0,2,2,NA,NA,NA,NA,NA,NA,sub-94467335
NA,NA,NA,NA,rot,yellow,0,NA,NA,NA,NA,0,3,3,NA,NA,NA,NA,NA,NA,sub-94467335
NA,NA,NA,NA,rot,red,1,NA,NA,NA,NA,0,4,4,NA,NA,NA,NA,NA,NA,sub-94467335
NA,NA,NA,NA,blau,yellow,0,NA,NA,NA,NA,0,5,5,NA,NA,NA,NA,NA,NA,sub-94467335
NA,NA,NA,NA,blau,blue,1,NA,NA,NA,NA,0,6,6,NA,NA,NA,NA,NA,NA,sub-94467335
NA,NA,NA,NA,rot,red,1,NA,NA,NA,NA,0,7,7,NA,NA,NA,NA,NA,NA,sub-94467335
NA,NA,NA,NA,rot,blue,0,NA,NA,NA,NA,0,8,8,NA,NA,NA,NA,NA,NA,sub-94467335
NA,NA,NA,NA,blau,blue,1,NA,NA,NA,NA,0,9,9,NA,NA,NA,NA,NA,NA,sub-94467335
NA,NA,NA,NA,blau,red,0,NA,NA,NA,NA,0,10,10,NA,NA,NA,NA,NA,NA,sub-94467335
NA,NA,NA,NA,gelb,yellow,1,NA,NA,NA,NA,0,11,11,NA,NA,NA,NA,NA,NA,sub-94467335
NA,NA,NA,NA,gelb,red,0,NA,NA,NA,NA,1,0,12,NA,NA,NA,NA,NA,NA,sub-94467335
NA,NA,NA,NA,gelb,yellow,1,NA,NA,NA,NA,1,1,13,NA,NA,NA,NA,NA,NA,sub-94467335
NA,NA,NA,NA,rot,red,1,NA,NA,NA,NA,1,2,14,NA,NA,NA,NA,NA,NA,sub-94467335
NA,NA,NA,NA,rot,red,1,NA,NA,NA,NA,1,3,15,NA,NA,NA,NA,NA,NA,sub-94467335
NA,NA,NA,NA,rot,blue,0,NA,NA,NA,NA,1,4,16,NA,NA,NA,NA,NA,NA,sub-94467335
NA,NA,NA,NA,rot,yellow,0,NA,NA,NA,NA,1,5,17,NA,NA,NA,NA,NA,NA,sub-94467335
NA,NA,NA,NA,blau,blue,1,NA,NA,NA,NA,1,6,18,NA,NA,NA,NA,NA,NA,sub-94467335
NA,NA,NA,NA,gelb,yellow,1,NA,NA,NA,NA,1,7,19,NA,NA,NA,NA,NA,NA,sub-94467335
NA,NA,NA,NA,blau,yellow,0,NA,NA,NA,NA,1,8,20,NA,NA,NA,NA,NA,NA,sub-94467335
NA,NA,NA,NA,gelb,blue,0,NA,NA,NA,NA,1,9,21,NA,NA,NA,NA,NA,NA,sub-94467335
NA,NA,NA,NA,blau,blue,1,NA,NA,NA,NA,1,10,22,NA,NA,NA,NA,NA,NA,sub-94467335
NA,NA,NA,NA,blau,red,0,NA,NA,NA,NA,1,11,23,NA,NA,NA,NA,NA,NA,sub-94467335
NA,NA,NA,NA,NA,NA,NA,NA,NA,NA,NA,NA,NA,NA,NA,NA,NA,NA,NA,NA,sub-94467335
NA,NA,NA,NA,NA,NA,NA,gelb,yellow,g,1,NA,NA,NA,0,0,0,g,1,0.56219370800045,sub-94467335
NA,NA,NA,NA,NA,NA,NA,gelb,yellow,g,1,NA,NA,NA,0,1,1,g,1,0.45062633300040034,sub-94467335
NA,NA,NA,NA,NA,NA,NA,rot,red,r,1,NA,NA,NA,0,2,2,r,1,0.41758583299997554,sub-94467335
NA,NA,NA,NA,NA,NA,NA,gelb,blue,b,0,NA,NA,NA,0,3,3,b,1,0.3457226669997908,sub-94467335
NA,NA,NA,NA,NA,NA,NA,blau,blue,b,1,NA,NA,NA,0,4,4,b,1,0.5447919580001326,sub-94467335
NA,NA,NA,NA,NA,NA,NA,gelb,red,r,0,NA,NA,NA,0,5,5,r,1,0.5238429579994772,sub-94467335
NA,NA,NA,NA,NA,NA,NA,rot,red,r,1,NA,NA,NA,0,6,6,r,1,0.4526865829993767,sub-94467335
NA,NA,NA,NA,NA,NA,NA,rot,blue,b,0,NA,NA,NA,0,7,7,b,1,0.4328694580008232,sub-94467335
NA,NA,NA,NA,NA,NA,NA,rot,yellow,g,0,NA,NA,NA,0,8,8,g,1,0.4016826249999213,sub-94467335
NA,NA,NA,NA,NA,NA,NA,blau,blue,b,1,NA,NA,NA,0,9,9,b,1,0.4445853340002941,sub-94467335
NA,NA,NA,NA,NA,NA,NA,blau,red,r,0,NA,NA,NA,0,10,10,r,1,0.4446140000000014,sub-94467335
NA,NA,NA,NA,NA,NA,NA,blau,yellow,g,0,NA,NA,NA,0,11,11,g,1,0.5286420419997739,sub-94467335
NA,NA,NA,NA,NA,NA,NA,gelb,red,r,0,NA,NA,NA,1,0,12,r,1,0.5865292079997744,sub-94467335
NA,NA,NA,NA,NA,NA,NA,blau,blue,b,1,NA,NA,NA,1,1,13,b,1,0.37957400000050256,sub-94467335
NA,NA,NA,NA,NA,NA,NA,rot,yellow,g,0,NA,NA,NA,1,2,14,g,1,0.35544779199972254,sub-94467335
NA,NA,NA,NA,NA,NA,NA,blau,red,r,0,NA,NA,NA,1,3,15,r,1,0.44438966599955165,sub-94467335
NA,NA,NA,NA,NA,NA,NA,gelb,yellow,g,1,NA,NA,NA,1,4,16,g,1,0.37889437499961787,sub-94467335
NA,NA,NA,NA,NA,NA,NA,blau,yellow,g,0,NA,NA,NA,1,5,17,g,1,0.3728825420002977,sub-94467335
NA,NA,NA,NA,NA,NA,NA,gelb,blue,b,0,NA,NA,NA,1,6,18,b,1,0.7697450420000678,sub-94467335
NA,NA,NA,NA,NA,NA,NA,blau,blue,b,1,NA,NA,NA,1,7,19,b,1,0.4792475000003833,sub-94467335
NA,NA,NA,NA,NA,NA,NA,rot,blue,b,0,NA,NA,NA,1,8,20,b,1,0.4740590000001248,sub-94467335
NA,NA,NA,NA,NA,NA,NA,rot,red,r,1,NA,NA,NA,1,9,21,r,1,0.6861152499996024,sub-94467335
NA,NA,NA,NA,NA,NA,NA,rot,red,r,1,NA,NA,NA,1,10,22,r,1,0.3951745829999709,sub-94467335
NA,NA,NA,NA,NA,NA,NA,gelb,yellow,g,1,NA,NA,NA,1,11,23,g,1,0.36082879200057505,sub-94467335
NA,NA,NA,NA,NA,NA,NA,gelb,yellow,g,1,NA,NA,NA,2,0,24,g,1,0.4937431660000584,sub-94467335
NA,NA,NA,NA,NA,NA,NA,gelb,blue,b,0,NA,NA,NA,2,1,25,b,1,0.40409175000058895,sub-94467335
NA,NA,NA,NA,NA,NA,NA,gelb,red,r,0,NA,NA,NA,2,2,26,r,1,0.4443202909997126,sub-94467335
NA,NA,NA,NA,NA,NA,NA,rot,red,r,1,NA,NA,NA,2,3,27,r,1,0.5577130000001489,sub-94467335
NA,NA,NA,NA,NA,NA,NA,gelb,yellow,g,1,NA,NA,NA,2,4,28,g,1,0.4757630000003701,sub-94467335
NA,NA,NA,NA,NA,NA,NA,blau,blue,b,1,NA,NA,NA,2,5,29,b,1,0.413053124999351,sub-94467335
NA,NA,NA,NA,NA,NA,NA,rot,blue,b,0,NA,NA,NA,2,6,30,b,1,0.39896745799978817,sub-94467335
NA,NA,NA,NA,NA,NA,NA,blau,blue,b,1,NA,NA,NA,2,7,31,b,1,0.42673712499981775,sub-94467335
NA,NA,NA,NA,NA,NA,NA,rot,yellow,g,0,NA,NA,NA,2,8,32,g,1,0.3659400829992592,sub-94467335
NA,NA,NA,NA,NA,NA,NA,blau,yellow,g,0,NA,NA,NA,2,9,33,g,1,0.49621558399940113,sub-94467335
NA,NA,NA,NA,NA,NA,NA,rot,red,r,1,NA,NA,NA,2,10,34,r,1,0.9310122500000944,sub-94467335
NA,NA,NA,NA,NA,NA,NA,blau,red,r,0,NA,NA,NA,2,11,35,r,1,0.5242805839998255,sub-94467335
NA,NA,NA,NA,NA,NA,NA,gelb,blue,b,0,NA,NA,NA,3,0,36,b,1,0.8529873339994083,sub-94467335
NA,NA,NA,NA,NA,NA,NA,blau,yellow,g,0,NA,NA,NA,3,1,37,g,1,0.5388512090003132,sub-94467335
NA,NA,NA,NA,NA,NA,NA,blau,red,r,0,NA,NA,NA,3,2,38,r,1,0.8014142089996312,sub-94467335
NA,NA,NA,NA,NA,NA,NA,rot,red,r,1,NA,NA,NA,3,3,39,r,1,0.6842979169996397,sub-94467335
NA,NA,NA,NA,NA,NA,NA,gelb,yellow,g,1,NA,NA,NA,3,4,40,g,1,0.4919409579997591,sub-94467335
NA,NA,NA,NA,NA,NA,NA,gelb,red,r,0,NA,NA,NA,3,5,41,r,1,0.5609411670002373,sub-94467335
NA,NA,NA,NA,NA,NA,NA,rot,yellow,g,0,NA,NA,NA,3,6,42,g,1,0.47604320899972663,sub-94467335
NA,NA,NA,NA,NA,NA,NA,gelb,yellow,g,1,NA,NA,NA,3,7,43,g,1,0.3836161660001381,sub-94467335
NA,NA,NA,NA,NA,NA,NA,rot,blue,b,0,NA,NA,NA,3,8,44,b,1,0.4050537080001959,sub-94467335
NA,NA,NA,NA,NA,NA,NA,blau,blue,b,1,NA,NA,NA,3,9,45,b,1,0.6308357919997434,sub-94467335
NA,NA,NA,NA,NA,NA,NA,blau,blue,b,1,NA,NA,NA,3,10,46,b,1,0.531835165999837,sub-94467335
NA,NA,NA,NA,NA,NA,NA,rot,red,r,1,NA,NA,NA,3,11,47,r,1,0.5691630419996727,sub-94467335
NA,NA,NA,NA,NA,NA,NA,blau,red,r,0,NA,NA,NA,4,0,48,r,1,0.5986301250004544,sub-94467335
NA,NA,NA,NA,NA,NA,NA,blau,yellow,g,0,NA,NA,NA,4,1,49,g,1,0.3594169999996666,sub-94467335
NA,NA,NA,NA,NA,NA,NA,gelb,yellow,g,1,NA,NA,NA,4,2,50,g,1,0.4137033329998303,sub-94467335
NA,NA,NA,NA,NA,NA,NA,gelb,blue,b,0,NA,NA,NA,4,3,51,b,1,0.5987245839996831,sub-94467335
NA,NA,NA,NA,NA,NA,NA,gelb,red,r,0,NA,NA,NA,4,4,52,r,1,0.37169558299956407,sub-94467335
NA,NA,NA,NA,NA,NA,NA,rot,yellow,g,0,NA,NA,NA,4,5,53,g,1,0.34746562500004075,sub-94467335
NA,NA,NA,NA,NA,NA,NA,blau,blue,b,1,NA,NA,NA,4,6,54,b,1,0.445267457999762,sub-94467335
NA,NA,NA,NA,NA,NA,NA,rot,blue,b,0,NA,NA,NA,4,7,55,b,1,0.561244584000633,sub-94467335
NA,NA,NA,NA,NA,NA,NA,rot,red,r,1,NA,NA,NA,4,8,56,r,1,0.4565482500001963,sub-94467335
NA,NA,NA,NA,NA,NA,NA,blau,blue,b,1,NA,NA,NA,4,9,57,b,1,0.804378750000069,sub-94467335
NA,NA,NA,NA,NA,NA,NA,gelb,yellow,g,1,NA,NA,NA,4,10,58,g,1,0.34150975000011385,sub-94467335
NA,NA,NA,NA,NA,NA,NA,rot,red,r,1,NA,NA,NA,4,11,59,r,1,0.926997417000166,sub-94467335
NA,NA,NA,NA,NA,NA,NA,rot,red,r,1,NA,NA,NA,5,0,60,r,1,0.4825219169997581,sub-94467335
NA,NA,NA,NA,NA,NA,NA,gelb,yellow,g,1,NA,NA,NA,5,1,61,g,1,0.37322129100084567,sub-94467335
NA,NA,NA,NA,NA,NA,NA,gelb,blue,b,0,NA,NA,NA,5,2,62,b,1,0.4110705000002781,sub-94467335
NA,NA,NA,NA,NA,NA,NA,rot,red,r,1,NA,NA,NA,5,3,63,r,1,0.3578763750001599,sub-94467335
NA,NA,NA,NA,NA,NA,NA,blau,red,r,0,NA,NA,NA,5,4,64,r,1,0.48109258400018007,sub-94467335
NA,NA,NA,NA,NA,NA,NA,blau,blue,b,1,NA,NA,NA,5,5,65,b,1,0.4438774170002944,sub-94467335
NA,NA,NA,NA,NA,NA,NA,rot,yellow,g,0,NA,NA,NA,5,6,66,g,1,0.3259514159999526,sub-94467335
NA,NA,NA,NA,NA,NA,NA,gelb,yellow,g,1,NA,NA,NA,5,7,67,g,1,0.5607310839995989,sub-94467335
NA,NA,NA,NA,NA,NA,NA,blau,blue,b,1,NA,NA,NA,5,8,68,b,1,0.4438623339992773,sub-94467335
NA,NA,NA,NA,NA,NA,NA,blau,yellow,g,0,NA,NA,NA,5,9,69,g,1,0.5123942079999324,sub-94467335
NA,NA,NA,NA,NA,NA,NA,rot,blue,b,0,NA,NA,NA,5,10,70,r,0,0.4882772920000207,sub-94467335
NA,NA,NA,NA,NA,NA,NA,gelb,red,r,0,NA,NA,NA,5,11,71,r,1,0.32675687499977357,sub-94467335
NA,NA,NA,NA,NA,NA,NA,gelb,yellow,g,1,NA,NA,NA,6,0,72,g,1,0.3531917499994961,sub-94467335
NA,NA,NA,NA,NA,NA,NA,blau,blue,b,1,NA,NA,NA,6,1,73,b,1,0.39969208299953607,sub-94467335
NA,NA,NA,NA,NA,NA,NA,gelb,blue,b,0,NA,NA,NA,6,2,74,b,1,0.4552539579999575,sub-94467335
NA,NA,NA,NA,NA,NA,NA,blau,blue,b,1,NA,NA,NA,6,3,75,b,1,0.4182757500002481,sub-94467335
NA,NA,NA,NA,NA,NA,NA,gelb,yellow,g,1,NA,NA,NA,6,4,76,g,1,0.4779717499995968,sub-94467335
NA,NA,NA,NA,NA,NA,NA,rot,blue,b,0,NA,NA,NA,6,5,77,b,1,0.5804818329997943,sub-94467335
NA,NA,NA,NA,NA,NA,NA,blau,red,r,0,NA,NA,NA,6,6,78,r,1,0.5786112089999733,sub-94467335
NA,NA,NA,NA,NA,NA,NA,rot,red,r,1,NA,NA,NA,6,7,79,r,1,0.46020666700042057,sub-94467335
NA,NA,NA,NA,NA,NA,NA,blau,yellow,g,0,NA,NA,NA,6,8,80,g,1,0.3365803330007111,sub-94467335
NA,NA,NA,NA,NA,NA,NA,rot,red,r,1,NA,NA,NA,6,9,81,r,1,0.4949747499995283,sub-94467335
NA,NA,NA,NA,NA,NA,NA,gelb,red,r,0,NA,NA,NA,6,10,82,r,1,0.5441282920000958,sub-94467335
NA,NA,NA,NA,NA,NA,NA,rot,yellow,g,0,NA,NA,NA,6,11,83,g,1,0.44495391700002074,sub-94467335
NA,NA,NA,NA,NA,NA,NA,rot,blue,b,0,NA,NA,NA,7,0,84,b,1,0.3817804580003212,sub-94467335
NA,NA,NA,NA,NA,NA,NA,rot,red,r,1,NA,NA,NA,7,1,85,r,1,0.5036350000000311,sub-94467335
NA,NA,NA,NA,NA,NA,NA,blau,blue,b,1,NA,NA,NA,7,2,86,b,1,0.3745926250003322,sub-94467335
NA,NA,NA,NA,NA,NA,NA,rot,yellow,g,0,NA,NA,NA,7,3,87,g,1,0.4663980410005024,sub-94467335
NA,NA,NA,NA,NA,NA,NA,blau,yellow,g,0,NA,NA,NA,7,4,88,g,1,0.3938892920004946,sub-94467335
NA,NA,NA,NA,NA,NA,NA,gelb,blue,b,0,NA,NA,NA,7,5,89,b,1,0.3290902919998189,sub-94467335
NA,NA,NA,NA,NA,NA,NA,rot,red,r,1,NA,NA,NA,7,6,90,r,1,0.4616539159997046,sub-94467335
NA,NA,NA,NA,NA,NA,NA,blau,blue,b,1,NA,NA,NA,7,7,91,b,1,0.4540832089996911,sub-94467335
NA,NA,NA,NA,NA,NA,NA,gelb,yellow,g,1,NA,NA,NA,7,8,92,g,1,0.2742251670006226,sub-94467335
NA,NA,NA,NA,NA,NA,NA,gelb,red,r,0,NA,NA,NA,7,9,93,r,1,0.5805848329991932,sub-94467335
NA,NA,NA,NA,NA,NA,NA,blau,red,r,0,NA,NA,NA,7,10,94,r,1,0.49564954200013744,sub-94467335
NA,NA,NA,NA,NA,NA,NA,gelb,yellow,g,1,NA,NA,NA,7,11,95,g,1,0.4125612080006249,sub-94467335
NA,NA,NA,NA,NA,NA,NA,blau,red,r,0,NA,NA,NA,8,0,96,r,1,0.6904807500004608,sub-94467335
NA,NA,NA,NA,NA,NA,NA,blau,yellow,g,0,NA,NA,NA,8,1,97,g,1,0.4674606670005232,sub-94467335
NA,NA,NA,NA,NA,NA,NA,blau,blue,b,1,NA,NA,NA,8,2,98,b,1,0.37694912499955535,sub-94467335
NA,NA,NA,NA,NA,NA,NA,gelb,red,r,0,NA,NA,NA,8,3,99,r,1,0.5481936670003051,sub-94467335
NA,NA,NA,NA,NA,NA,NA,gelb,yellow,g,1,NA,NA,NA,8,4,100,g,1,0.4971505840003374,sub-94467335
NA,NA,NA,NA,NA,NA,NA,gelb,yellow,g,1,NA,NA,NA,8,5,101,g,1,0.5514886669998305,sub-94467335
NA,NA,NA,NA,NA,NA,NA,rot,yellow,g,0,NA,NA,NA,8,6,102,g,1,0.3728201249996346,sub-94467335
NA,NA,NA,NA,NA,NA,NA,rot,red,r,1,NA,NA,NA,8,7,103,r,1,0.3897726659997715,sub-94467335
NA,NA,NA,NA,NA,NA,NA,rot,red,r,1,NA,NA,NA,8,8,104,r,1,0.42221570900073857,sub-94467335
NA,NA,NA,NA,NA,NA,NA,blau,blue,b,1,NA,NA,NA,8,9,105,b,1,0.4412530420004259,sub-94467335
NA,NA,NA,NA,NA,NA,NA,gelb,blue,b,0,NA,NA,NA,8,10,106,b,1,0.5790248749999591,sub-94467335
NA,NA,NA,NA,NA,NA,NA,rot,blue,b,0,NA,NA,NA,8,11,107,b,1,0.46248587500031135,sub-94467335
NA,NA,NA,NA,NA,NA,NA,rot,yellow,g,0,NA,NA,NA,9,0,108,g,1,0.33241337500021473,sub-94467335
NA,NA,NA,NA,NA,NA,NA,gelb,yellow,g,1,NA,NA,NA,9,1,109,r,0,0.33884012500038807,sub-94467335
NA,NA,NA,NA,NA,NA,NA,blau,blue,b,1,NA,NA,NA,9,2,110,b,1,0.4586916250000286,sub-94467335
NA,NA,NA,NA,NA,NA,NA,gelb,red,r,0,NA,NA,NA,9,3,111,r,1,0.9085493330003374,sub-94467335
NA,NA,NA,NA,NA,NA,NA,gelb,yellow,g,1,NA,NA,NA,9,4,112,g,1,0.36044479200063506,sub-94467335
NA,NA,NA,NA,NA,NA,NA,blau,blue,b,1,NA,NA,NA,9,5,113,b,1,0.37218899999970745,sub-94467335
NA,NA,NA,NA,NA,NA,NA,rot,blue,b,0,NA,NA,NA,9,6,114,g,0,0.44047020800007886,sub-94467335
NA,NA,NA,NA,NA,NA,NA,blau,yellow,g,0,NA,NA,NA,9,7,115,g,1,0.7026564160005364,sub-94467335
NA,NA,NA,NA,NA,NA,NA,rot,red,r,1,NA,NA,NA,9,8,116,r,1,0.7650990410002123,sub-94467335
NA,NA,NA,NA,NA,NA,NA,blau,red,r,0,NA,NA,NA,9,9,117,r,1,0.5510945420001008,sub-94467335
NA,NA,NA,NA,NA,NA,NA,rot,red,r,1,NA,NA,NA,9,10,118,r,1,0.43982854200021393,sub-94467335
NA,NA,NA,NA,NA,NA,NA,gelb,blue,b,0,NA,NA,NA,9,11,119,b,1,0.41714225000032457,sub-94467335
NA,NA,NA,NA,NA,NA,NA,NA,NA,NA,NA,NA,NA,NA,NA,NA,NA,NA,NA,NA,sub-94467335
