wordCTK,colorCTK,corrAnsCTK,congruentCTK,wordPractice,colorPractice,congruentPractice,word,color,corrAns,congruent,trials_practice.thisRepN,trials_practice.thisTrialN,trials_practice.thisN,trials_test.thisRepN,trials_test.thisTrialN,trials_test.thisN,keyResp_test_run.keys,keyResp_test_run.corr,keyResp_test_run.rt,participant
NA,NA,NA,NA,NA,NA,NA,NA,NA,NA,NA,NA,NA,NA,NA,NA,NA,NA,NA,NA,sub-78050500
NA,NA,NA,NA,NA,NA,NA,NA,NA,NA,NA,NA,NA,NA,NA,NA,NA,NA,NA,NA,sub-78050500
test,red,r,1,NA,NA,NA,NA,NA,NA,NA,NA,NA,NA,NA,NA,NA,NA,NA,NA,sub-78050500
test,yellow,g,1,NA,NA,NA,NA,NA,NA,NA,NA,NA,NA,NA,NA,NA,NA,NA,NA,sub-78050500
test,blue,b,1,NA,NA,NA,NA,NA,NA,NA,NA,NA,NA,NA,NA,NA,NA,NA,NA,sub-78050500
test,red,r,1,NA,NA,NA,NA,NA,NA,NA,NA,NA,NA,NA,NA,NA,NA,NA,NA,sub-78050500
test,yellow,g,1,NA,NA,NA,NA,NA,NA,NA,NA,NA,NA,NA,NA,NA,NA,NA,NA,sub-78050500
test,blue,b,1,NA,NA,NA,NA,NA,NA,NA,NA,NA,NA,NA,NA,NA,NA,NA,NA,sub-78050500
test,red,r,1,NA,NA,NA,NA,NA,NA,NA,NA,NA,NA,NA,NA,NA,NA,NA,NA,sub-78050500
test,blue,b,1,NA,NA,NA,NA,NA,NA,NA,NA,NA,NA,NA,NA,NA,NA,NA,NA,sub-78050500
test,yellow,g,1,NA,NA,NA,NA,NA,NA,NA,NA,NA,NA,NA,NA,NA,NA,NA,NA,sub-78050500
test,blue,b,1,NA,NA,NA,NA,NA,NA,NA,NA,NA,NA,NA,NA,NA,NA,NA,NA,sub-78050500
test,yellow,g,1,NA,NA,NA,NA,NA,NA,NA,NA,NA,NA,NA,NA,NA,NA,NA,NA,sub-78050500
test,red,r,1,NA,NA,NA,NA,NA,NA,NA,NA,NA,NA,NA,NA,NA,NA,NA,NA,sub-78050500
NA,NA,NA,NA,NA,NA,NA,NA,NA,NA,NA,NA,NA,NA,NA,NA,NA,NA,NA,NA,sub-78050500
NA,NA,NA,NA,rot,red,1,NA,NA,NA,NA,0,0,0,NA,NA,NA,NA,NA,NA,sub-78050500
NA,NA,NA,NA,rot,yellow,0,NA,NA,NA,NA,0,1,1,NA,NA,NA,NA,NA,NA,sub-78050500
NA,NA,NA,NA,gelb,yellow,1,NA,NA,NA,NA,0,2,2,NA,NA,NA,NA,NA,NA,sub-78050500
NA,NA,NA,NA,blau,red,0,NA,NA,NA,NA,0,3,3,NA,NA,NA,NA,NA,NA,sub-78050500
NA,NA,NA,NA,gelb,yellow,1,NA,NA,NA,NA,0,4,4,NA,NA,NA,NA,NA,NA,sub-78050500
NA,NA,NA,NA,blau,blue,1,NA,NA,NA,NA,0,5,5,NA,NA,NA,NA,NA,NA,sub-78050500
NA,NA,NA,NA,rot,blue,0,NA,NA,NA,NA,0,6,6,NA,NA,NA,NA,NA,NA,sub-78050500
NA,NA,NA,NA,gelb,blue,0,NA,NA,NA,NA,0,7,7,NA,NA,NA,NA,NA,NA,sub-78050500
NA,NA,NA,NA,rot,red,1,NA,NA,NA,NA,0,8,8,NA,NA,NA,NA,NA,NA,sub-78050500
NA,NA,NA,NA,gelb,red,0,NA,NA,NA,NA,0,9,9,NA,NA,NA,NA,NA,NA,sub-78050500
NA,NA,NA,NA,blau,yellow,0,NA,NA,NA,NA,0,10,10,NA,NA,NA,NA,NA,NA,sub-78050500
NA,NA,NA,NA,blau,blue,1,NA,NA,NA,NA,0,11,11,NA,NA,NA,NA,NA,NA,sub-78050500
NA,NA,NA,NA,gelb,yellow,1,NA,NA,NA,NA,1,0,12,NA,NA,NA,NA,NA,NA,sub-78050500
NA,NA,NA,NA,blau,yellow,0,NA,NA,NA,NA,1,1,13,NA,NA,NA,NA,NA,NA,sub-78050500
NA,NA,NA,NA,rot,red,1,NA,NA,NA,NA,1,2,14,NA,NA,NA,NA,NA,NA,sub-78050500
NA,NA,NA,NA,blau,red,0,NA,NA,NA,NA,1,3,15,NA,NA,NA,NA,NA,NA,sub-78050500
NA,NA,NA,NA,rot,red,1,NA,NA,NA,NA,1,4,16,NA,NA,NA,NA,NA,NA,sub-78050500
NA,NA,NA,NA,gelb,red,0,NA,NA,NA,NA,1,5,17,NA,NA,NA,NA,NA,NA,sub-78050500
NA,NA,NA,NA,gelb,blue,0,NA,NA,NA,NA,1,6,18,NA,NA,NA,NA,NA,NA,sub-78050500
NA,NA,NA,NA,rot,blue,0,NA,NA,NA,NA,1,7,19,NA,NA,NA,NA,NA,NA,sub-78050500
NA,NA,NA,NA,rot,yellow,0,NA,NA,NA,NA,1,8,20,NA,NA,NA,NA,NA,NA,sub-78050500
NA,NA,NA,NA,blau,blue,1,NA,NA,NA,NA,1,9,21,NA,NA,NA,NA,NA,NA,sub-78050500
NA,NA,NA,NA,blau,blue,1,NA,NA,NA,NA,1,10,22,NA,NA,NA,NA,NA,NA,sub-78050500
NA,NA,NA,NA,gelb,yellow,1,NA,NA,NA,NA,1,11,23,NA,NA,NA,NA,NA,NA,sub-78050500
NA,NA,NA,NA,NA,NA,NA,NA,NA,NA,NA,NA,NA,NA,NA,NA,NA,NA,NA,NA,sub-78050500
NA,NA,NA,NA,NA,NA,NA,blau,red,r,0,NA,NA,NA,0,0,0,r,1,0.8592692000092939,sub-78050500
NA,NA,NA,NA,NA,NA,NA,rot,yellow,g,0,NA,NA,NA,0,1,1,g,1,0.4030471000587568,sub-78050500
NA,NA,NA,NA,NA,NA,NA,gelb,yellow,g,1,NA,NA,NA,0,2,2,g,1,0.4687621999764815,sub-78050500
NA,NA,NA,NA,NA,NA,NA,rot,red,r,1,NA,NA,NA,0,3,3,r,1,0.40127230004873127,sub-78050500
NA,NA,NA,NA,NA,NA,NA,rot,red,r,1,NA,NA,NA,0,4,4,r,1,0.6175435999175534,sub-78050500
NA,NA,NA,NA,NA,NA,NA,gelb,yellow,g,1,NA,NA,NA,0,5,5,g,1,0.4052873000036925,sub-78050500
NA,NA,NA,NA,NA,NA,NA,gelb,blue,b,0,NA,NA,NA,0,6,6,b,1,0.4459264000179246,sub-78050500
NA,NA,NA,NA,NA,NA,NA,blau,blue,b,1,NA,NA,NA,0,7,7,r,0,0.512277300003916,sub-78050500
NA,NA,NA,NA,NA,NA,NA,rot,blue,b,0,NA,NA,NA,0,8,8,b,1,0.6325704000191763,sub-78050500
NA,NA,NA,NA,NA,NA,NA,gelb,red,r,0,NA,NA,NA,0,9,9,r,1,0.7750935000367463,sub-78050500
NA,NA,NA,NA,NA,NA,NA,blau,blue,b,1,NA,NA,NA,0,10,10,b,1,0.4696790999732912,sub-78050500
NA,NA,NA,NA,NA,NA,NA,blau,yellow,g,0,NA,NA,NA,0,11,11,g,1,0.36702949996106327,sub-78050500
NA,NA,NA,NA,NA,NA,NA,gelb,yellow,g,1,NA,NA,NA,1,0,12,g,1,0.4922832000302151,sub-78050500
NA,NA,NA,NA,NA,NA,NA,blau,blue,b,1,NA,NA,NA,1,1,13,b,1,0.4408152000978589,sub-78050500
NA,NA,NA,NA,NA,NA,NA,rot,yellow,g,0,NA,NA,NA,1,2,14,g,1,0.6850683999946341,sub-78050500
NA,NA,NA,NA,NA,NA,NA,gelb,blue,b,0,NA,NA,NA,1,3,15,b,1,0.5211540999589488,sub-78050500
NA,NA,NA,NA,NA,NA,NA,rot,red,r,1,NA,NA,NA,1,4,16,r,1,0.5970636999700218,sub-78050500
NA,NA,NA,NA,NA,NA,NA,blau,red,r,0,NA,NA,NA,1,5,17,r,1,0.5426484999479726,sub-78050500
NA,NA,NA,NA,NA,NA,NA,blau,yellow,g,0,NA,NA,NA,1,6,18,r,0,0.5585447000339627,sub-78050500
NA,NA,NA,NA,NA,NA,NA,rot,blue,b,0,NA,NA,NA,1,7,19,b,1,0.4428601000690833,sub-78050500
NA,NA,NA,NA,NA,NA,NA,rot,red,r,1,NA,NA,NA,1,8,20,r,1,0.4838194000767544,sub-78050500
NA,NA,NA,NA,NA,NA,NA,blau,blue,b,1,NA,NA,NA,1,9,21,b,1,0.585071999928914,sub-78050500
NA,NA,NA,NA,NA,NA,NA,gelb,yellow,g,1,NA,NA,NA,1,10,22,g,1,0.6539175999350846,sub-78050500
NA,NA,NA,NA,NA,NA,NA,gelb,red,r,0,NA,NA,NA,1,11,23,r,1,0.37348449998535216,sub-78050500
NA,NA,NA,NA,NA,NA,NA,blau,yellow,g,0,NA,NA,NA,2,0,24,g,1,0.37380419997498393,sub-78050500
NA,NA,NA,NA,NA,NA,NA,gelb,yellow,g,1,NA,NA,NA,2,1,25,g,1,0.5539236000040546,sub-78050500
NA,NA,NA,NA,NA,NA,NA,blau,blue,b,1,NA,NA,NA,2,2,26,b,1,0.35799179994501173,sub-78050500
NA,NA,NA,NA,NA,NA,NA,gelb,yellow,g,1,NA,NA,NA,2,3,27,g,1,0.5247863999102265,sub-78050500
NA,NA,NA,NA,NA,NA,NA,rot,blue,b,0,NA,NA,NA,2,4,28,b,1,0.4458596999756992,sub-78050500
NA,NA,NA,NA,NA,NA,NA,gelb,blue,b,0,NA,NA,NA,2,5,29,g,0,0.4853653999743983,sub-78050500
NA,NA,NA,NA,NA,NA,NA,blau,blue,b,1,NA,NA,NA,2,6,30,b,1,0.5762361000524834,sub-78050500
NA,NA,NA,NA,NA,NA,NA,blau,red,r,0,NA,NA,NA,2,7,31,r,1,0.46949349995702505,sub-78050500
NA,NA,NA,NA,NA,NA,NA,rot,yellow,g,0,NA,NA,NA,2,8,32,g,1,0.458583900006488,sub-78050500
NA,NA,NA,NA,NA,NA,NA,rot,red,r,1,NA,NA,NA,2,9,33,r,1,0.7805000999942422,sub-78050500
NA,NA,NA,NA,NA,NA,NA,gelb,red,r,0,NA,NA,NA,2,10,34,r,1,0.5562821000348777,sub-78050500
NA,NA,NA,NA,NA,NA,NA,rot,red,r,1,NA,NA,NA,2,11,35,r,1,0.5137359999353066,sub-78050500
NA,NA,NA,NA,NA,NA,NA,gelb,yellow,g,1,NA,NA,NA,3,0,36,g,1,0.6760424999520183,sub-78050500
NA,NA,NA,NA,NA,NA,NA,gelb,yellow,g,1,NA,NA,NA,3,1,37,g,1,0.4007810999173671,sub-78050500
NA,NA,NA,NA,NA,NA,NA,rot,blue,b,0,NA,NA,NA,3,2,38,b,1,0.45494339999277145,sub-78050500
NA,NA,NA,NA,NA,NA,NA,blau,red,r,0,NA,NA,NA,3,3,39,r,1,0.5024007000029087,sub-78050500
NA,NA,NA,NA,NA,NA,NA,blau,yellow,g,0,NA,NA,NA,3,4,40,r,0,0.4180371999973431,sub-78050500
NA,NA,NA,NA,NA,NA,NA,rot,red,r,1,NA,NA,NA,3,5,41,r,1,0.5283213000511751,sub-78050500
NA,NA,NA,NA,NA,NA,NA,rot,red,r,1,NA,NA,NA,3,6,42,r,1,0.5734517000382766,sub-78050500
NA,NA,NA,NA,NA,NA,NA,blau,blue,b,1,NA,NA,NA,3,7,43,b,1,0.388770499965176,sub-78050500
NA,NA,NA,NA,NA,NA,NA,rot,yellow,g,0,NA,NA,NA,3,8,44,g,1,0.3955482000019402,sub-78050500
NA,NA,NA,NA,NA,NA,NA,blau,blue,b,1,NA,NA,NA,3,9,45,b,1,0.5326003999216482,sub-78050500
NA,NA,NA,NA,NA,NA,NA,gelb,red,r,0,NA,NA,NA,3,10,46,r,1,0.9127391000511124,sub-78050500
NA,NA,NA,NA,NA,NA,NA,gelb,blue,b,0,NA,NA,NA,3,11,47,b,1,0.4386458999942988,sub-78050500
NA,NA,NA,NA,NA,NA,NA,blau,blue,b,1,NA,NA,NA,4,0,48,b,1,0.4778880999656394,sub-78050500
NA,NA,NA,NA,NA,NA,NA,gelb,yellow,g,1,NA,NA,NA,4,1,49,g,1,0.3406440999824554,sub-78050500
NA,NA,NA,NA,NA,NA,NA,gelb,yellow,g,1,NA,NA,NA,4,2,50,b,0,0.4106320000719279,sub-78050500
NA,NA,NA,NA,NA,NA,NA,gelb,red,r,0,NA,NA,NA,4,3,51,r,1,0.4928309000097215,sub-78050500
NA,NA,NA,NA,NA,NA,NA,rot,yellow,g,0,NA,NA,NA,4,4,52,r,0,0.5063492000335827,sub-78050500
NA,NA,NA,NA,NA,NA,NA,blau,red,r,0,NA,NA,NA,4,5,53,r,1,0.5398227000841871,sub-78050500
NA,NA,NA,NA,NA,NA,NA,blau,blue,b,1,NA,NA,NA,4,6,54,b,1,0.504313200013712,sub-78050500
NA,NA,NA,NA,NA,NA,NA,rot,red,r,1,NA,NA,NA,4,7,55,r,1,0.6121065999614075,sub-78050500
NA,NA,NA,NA,NA,NA,NA,blau,yellow,g,0,NA,NA,NA,4,8,56,g,1,0.4966487000929192,sub-78050500
NA,NA,NA,NA,NA,NA,NA,gelb,blue,b,0,NA,NA,NA,4,9,57,b,1,0.46072620002087206,sub-78050500
NA,NA,NA,NA,NA,NA,NA,rot,red,r,1,NA,NA,NA,4,10,58,r,1,0.867912600049749,sub-78050500
NA,NA,NA,NA,NA,NA,NA,rot,blue,b,0,NA,NA,NA,4,11,59,b,1,0.3931279999669641,sub-78050500
NA,NA,NA,NA,NA,NA,NA,gelb,blue,b,0,NA,NA,NA,5,0,60,b,1,0.6651204000227153,sub-78050500
NA,NA,NA,NA,NA,NA,NA,rot,yellow,g,0,NA,NA,NA,5,1,61,g,1,0.45389120001345873,sub-78050500
NA,NA,NA,NA,NA,NA,NA,gelb,yellow,g,1,NA,NA,NA,5,2,62,g,1,0.4880360000533983,sub-78050500
NA,NA,NA,NA,NA,NA,NA,gelb,red,r,0,NA,NA,NA,5,3,63,r,1,1.1445629000663755,sub-78050500
NA,NA,NA,NA,NA,NA,NA,gelb,yellow,g,1,NA,NA,NA,5,4,64,g,1,0.7461806000210345,sub-78050500
NA,NA,NA,NA,NA,NA,NA,blau,yellow,g,0,NA,NA,NA,5,5,65,g,1,0.4046707999659702,sub-78050500
NA,NA,NA,NA,NA,NA,NA,blau,blue,b,1,NA,NA,NA,5,6,66,b,1,0.43286239996086806,sub-78050500
NA,NA,NA,NA,NA,NA,NA,blau,blue,b,1,NA,NA,NA,5,7,67,b,1,0.745729900081642,sub-78050500
NA,NA,NA,NA,NA,NA,NA,rot,red,r,1,NA,NA,NA,5,8,68,r,1,0.4622197999851778,sub-78050500
NA,NA,NA,NA,NA,NA,NA,rot,blue,b,0,NA,NA,NA,5,9,69,b,1,0.688136599957943,sub-78050500
NA,NA,NA,NA,NA,NA,NA,blau,red,r,0,NA,NA,NA,5,10,70,r,1,0.6395320000592619,sub-78050500
NA,NA,NA,NA,NA,NA,NA,rot,red,r,1,NA,NA,NA,5,11,71,r,1,0.5059809999074787,sub-78050500
NA,NA,NA,NA,NA,NA,NA,gelb,yellow,g,1,NA,NA,NA,6,0,72,g,1,0.33558429998811334,sub-78050500
NA,NA,NA,NA,NA,NA,NA,blau,blue,b,1,NA,NA,NA,6,1,73,b,1,0.3763352999230847,sub-78050500
NA,NA,NA,NA,NA,NA,NA,gelb,yellow,g,1,NA,NA,NA,6,2,74,g,1,0.3697740000206977,sub-78050500
NA,NA,NA,NA,NA,NA,NA,blau,blue,b,1,NA,NA,NA,6,3,75,b,1,0.5318238999461755,sub-78050500
NA,NA,NA,NA,NA,NA,NA,blau,red,r,0,NA,NA,NA,6,4,76,r,1,0.3150424000341445,sub-78050500
NA,NA,NA,NA,NA,NA,NA,rot,red,r,1,NA,NA,NA,6,5,77,r,1,0.42840089998207986,sub-78050500
NA,NA,NA,NA,NA,NA,NA,rot,yellow,g,0,NA,NA,NA,6,6,78,g,1,0.5784679000498727,sub-78050500
NA,NA,NA,NA,NA,NA,NA,rot,red,r,1,NA,NA,NA,6,7,79,r,1,0.4823808000655845,sub-78050500
NA,NA,NA,NA,NA,NA,NA,gelb,red,r,0,NA,NA,NA,6,8,80,r,1,1.4711622999748215,sub-78050500
NA,NA,NA,NA,NA,NA,NA,blau,yellow,g,0,NA,NA,NA,6,9,81,r,0,0.6901588999899104,sub-78050500
NA,NA,NA,NA,NA,NA,NA,gelb,blue,b,0,NA,NA,NA,6,10,82,b,1,0.5806295000948012,sub-78050500
NA,NA,NA,NA,NA,NA,NA,rot,blue,b,0,NA,NA,NA,6,11,83,b,1,0.9959892000770196,sub-78050500
NA,NA,NA,NA,NA,NA,NA,blau,yellow,g,0,NA,NA,NA,7,0,84,g,1,0.705540299997665,sub-78050500
NA,NA,NA,NA,NA,NA,NA,blau,blue,b,1,NA,NA,NA,7,1,85,b,1,0.5581993999658152,sub-78050500
NA,NA,NA,NA,NA,NA,NA,rot,red,r,1,NA,NA,NA,7,2,86,r,1,0.4539353000000119,sub-78050500
NA,NA,NA,NA,NA,NA,NA,rot,yellow,g,0,NA,NA,NA,7,3,87,g,1,0.4130058999871835,sub-78050500
NA,NA,NA,NA,NA,NA,NA,gelb,blue,b,0,NA,NA,NA,7,4,88,b,1,0.3879050000105053,sub-78050500
NA,NA,NA,NA,NA,NA,NA,rot,red,r,1,NA,NA,NA,7,5,89,r,1,0.6377594999503344,sub-78050500
NA,NA,NA,NA,NA,NA,NA,gelb,yellow,g,1,NA,NA,NA,7,6,90,g,1,0.6161782999988645,sub-78050500
NA,NA,NA,NA,NA,NA,NA,gelb,yellow,g,1,NA,NA,NA,7,7,91,g,1,0.5985290999524295,sub-78050500
NA,NA,NA,NA,NA,NA,NA,blau,blue,b,1,NA,NA,NA,7,8,92,b,1,0.4717796000186354,sub-78050500
NA,NA,NA,NA,NA,NA,NA,rot,blue,b,0,NA,NA,NA,7,9,93,b,1,0.4961385000497103,sub-78050500
NA,NA,NA,NA,NA,NA,NA,blau,red,r,0,NA,NA,NA,7,10,94,r,1,0.7172765000723302,sub-78050500
NA,NA,NA,NA,NA,NA,NA,gelb,red,r,0,NA,NA,NA,7,11,95,r,1,0.6156108999857679,sub-78050500
NA,NA,NA,NA,NA,NA,NA,rot,yellow,g,0,NA,NA,NA,8,0,96,g,1,0.381332700024359,sub-78050500
NA,NA,NA,NA,NA,NA,NA,gelb,red,r,0,NA,NA,NA,8,1,97,r,1,0.8881427000742406,sub-78050500
NA,NA,NA,NA,NA,NA,NA,rot,red,r,1,NA,NA,NA,8,2,98,r,1,0.4953406999120489,sub-78050500
NA,NA,NA,NA,NA,NA,NA,gelb,yellow,g,1,NA,NA,NA,8,3,99,g,1,0.4605163999367506,sub-78050500
NA,NA,NA,NA,NA,NA,NA,blau,yellow,g,0,NA,NA,NA,8,4,100,g,1,0.5952897999668494,sub-78050500
NA,NA,NA,NA,NA,NA,NA,blau,red,r,0,NA,NA,NA,8,5,101,r,1,0.595768200000748,sub-78050500
NA,NA,NA,NA,NA,NA,NA,gelb,blue,b,0,NA,NA,NA,8,6,102,b,1,0.4360447999788448,sub-78050500
NA,NA,NA,NA,NA,NA,NA,blau,blue,b,1,NA,NA,NA,8,7,103,b,1,0.5298392999684438,sub-78050500
NA,NA,NA,NA,NA,NA,NA,rot,blue,b,0,NA,NA,NA,8,8,104,b,1,0.5111641000257805,sub-78050500
NA,NA,NA,NA,NA,NA,NA,blau,blue,b,1,NA,NA,NA,8,9,105,b,1,0.6243378999643028,sub-78050500
NA,NA,NA,NA,NA,NA,NA,rot,red,r,1,NA,NA,NA,8,10,106,r,1,0.4945640000514686,sub-78050500
NA,NA,NA,NA,NA,NA,NA,gelb,yellow,g,1,NA,NA,NA,8,11,107,g,1,0.3704039000440389,sub-78050500
NA,NA,NA,NA,NA,NA,NA,gelb,red,r,0,NA,NA,NA,9,0,108,r,1,0.6596966000506654,sub-78050500
NA,NA,NA,NA,NA,NA,NA,gelb,blue,b,0,NA,NA,NA,9,1,109,b,1,0.6611623999197036,sub-78050500
NA,NA,NA,NA,NA,NA,NA,gelb,yellow,g,1,NA,NA,NA,9,2,110,g,1,0.6097892000107095,sub-78050500
NA,NA,NA,NA,NA,NA,NA,blau,blue,b,1,NA,NA,NA,9,3,111,b,1,2.0319576000329107,sub-78050500
NA,NA,NA,NA,NA,NA,NA,blau,red,r,0,NA,NA,NA,9,4,112,r,1,0.6012661000713706,sub-78050500
NA,NA,NA,NA,NA,NA,NA,blau,blue,b,1,NA,NA,NA,9,5,113,b,1,0.6265427001053467,sub-78050500
NA,NA,NA,NA,NA,NA,NA,gelb,yellow,g,1,NA,NA,NA,9,6,114,g,1,0.38388979993760586,sub-78050500
NA,NA,NA,NA,NA,NA,NA,blau,yellow,g,0,NA,NA,NA,9,7,115,g,1,0.745799099910073,sub-78050500
NA,NA,NA,NA,NA,NA,NA,rot,yellow,g,0,NA,NA,NA,9,8,116,g,1,0.7639216999523342,sub-78050500
NA,NA,NA,NA,NA,NA,NA,rot,red,r,1,NA,NA,NA,9,9,117,r,1,0.5608447999693453,sub-78050500
NA,NA,NA,NA,NA,NA,NA,rot,red,r,1,NA,NA,NA,9,10,118,r,1,0.3624357999069616,sub-78050500
NA,NA,NA,NA,NA,NA,NA,rot,blue,b,0,NA,NA,NA,9,11,119,b,1,0.37476719997357577,sub-78050500
NA,NA,NA,NA,NA,NA,NA,NA,NA,NA,NA,NA,NA,NA,NA,NA,NA,NA,NA,NA,sub-78050500
