wordCTK,colorCTK,corrAnsCTK,congruentCTK,wordPractice,colorPractice,congruentPractice,word,color,corrAns,congruent,trials_practice.thisRepN,trials_practice.thisTrialN,trials_practice.thisN,trials_test.thisRepN,trials_test.thisTrialN,trials_test.thisN,keyResp_test_run.keys,keyResp_test_run.corr,keyResp_test_run.rt,participant
NA,NA,NA,NA,NA,NA,NA,NA,NA,NA,NA,NA,NA,NA,NA,NA,NA,NA,NA,NA,sub-75420920
NA,NA,NA,NA,NA,NA,NA,NA,NA,NA,NA,NA,NA,NA,NA,NA,NA,NA,NA,NA,sub-75420920
test,blue,b,1,NA,NA,NA,NA,NA,NA,NA,NA,NA,NA,NA,NA,NA,NA,NA,NA,sub-75420920
test,red,r,1,NA,NA,NA,NA,NA,NA,NA,NA,NA,NA,NA,NA,NA,NA,NA,NA,sub-75420920
test,yellow,g,1,NA,NA,NA,NA,NA,NA,NA,NA,NA,NA,NA,NA,NA,NA,NA,NA,sub-75420920
test,blue,b,1,NA,NA,NA,NA,NA,NA,NA,NA,NA,NA,NA,NA,NA,NA,NA,NA,sub-75420920
test,yellow,g,1,NA,NA,NA,NA,NA,NA,NA,NA,NA,NA,NA,NA,NA,NA,NA,NA,sub-75420920
test,red,r,1,NA,NA,NA,NA,NA,NA,NA,NA,NA,NA,NA,NA,NA,NA,NA,NA,sub-75420920
test,blue,b,1,NA,NA,NA,NA,NA,NA,NA,NA,NA,NA,NA,NA,NA,NA,NA,NA,sub-75420920
test,yellow,g,1,NA,NA,NA,NA,NA,NA,NA,NA,NA,NA,NA,NA,NA,NA,NA,NA,sub-75420920
test,red,r,1,NA,NA,NA,NA,NA,NA,NA,NA,NA,NA,NA,NA,NA,NA,NA,NA,sub-75420920
test,blue,b,1,NA,NA,NA,NA,NA,NA,NA,NA,NA,NA,NA,NA,NA,NA,NA,NA,sub-75420920
test,yellow,g,1,NA,NA,NA,NA,NA,NA,NA,NA,NA,NA,NA,NA,NA,NA,NA,NA,sub-75420920
test,red,r,1,NA,NA,NA,NA,NA,NA,NA,NA,NA,NA,NA,NA,NA,NA,NA,NA,sub-75420920
NA,NA,NA,NA,NA,NA,NA,NA,NA,NA,NA,NA,NA,NA,NA,NA,NA,NA,NA,NA,sub-75420920
NA,NA,NA,NA,blau,blue,1,NA,NA,NA,NA,0,0,0,NA,NA,NA,NA,NA,NA,sub-75420920
NA,NA,NA,NA,gelb,red,0,NA,NA,NA,NA,0,1,1,NA,NA,NA,NA,NA,NA,sub-75420920
NA,NA,NA,NA,rot,red,1,NA,NA,NA,NA,0,2,2,NA,NA,NA,NA,NA,NA,sub-75420920
NA,NA,NA,NA,gelb,yellow,1,NA,NA,NA,NA,0,3,3,NA,NA,NA,NA,NA,NA,sub-75420920
NA,NA,NA,NA,blau,yellow,0,NA,NA,NA,NA,0,4,4,NA,NA,NA,NA,NA,NA,sub-75420920
NA,NA,NA,NA,blau,red,0,NA,NA,NA,NA,0,5,5,NA,NA,NA,NA,NA,NA,sub-75420920
NA,NA,NA,NA,rot,blue,0,NA,NA,NA,NA,0,6,6,NA,NA,NA,NA,NA,NA,sub-75420920
NA,NA,NA,NA,gelb,yellow,1,NA,NA,NA,NA,0,7,7,NA,NA,NA,NA,NA,NA,sub-75420920
NA,NA,NA,NA,gelb,blue,0,NA,NA,NA,NA,0,8,8,NA,NA,NA,NA,NA,NA,sub-75420920
NA,NA,NA,NA,blau,blue,1,NA,NA,NA,NA,0,9,9,NA,NA,NA,NA,NA,NA,sub-75420920
NA,NA,NA,NA,rot,yellow,0,NA,NA,NA,NA,0,10,10,NA,NA,NA,NA,NA,NA,sub-75420920
NA,NA,NA,NA,rot,red,1,NA,NA,NA,NA,0,11,11,NA,NA,NA,NA,NA,NA,sub-75420920
NA,NA,NA,NA,rot,red,1,NA,NA,NA,NA,1,0,12,NA,NA,NA,NA,NA,NA,sub-75420920
NA,NA,NA,NA,blau,blue,1,NA,NA,NA,NA,1,1,13,NA,NA,NA,NA,NA,NA,sub-75420920
NA,NA,NA,NA,gelb,blue,0,NA,NA,NA,NA,1,2,14,NA,NA,NA,NA,NA,NA,sub-75420920
NA,NA,NA,NA,blau,yellow,0,NA,NA,NA,NA,1,3,15,NA,NA,NA,NA,NA,NA,sub-75420920
NA,NA,NA,NA,rot,blue,0,NA,NA,NA,NA,1,4,16,NA,NA,NA,NA,NA,NA,sub-75420920
NA,NA,NA,NA,blau,red,0,NA,NA,NA,NA,1,5,17,NA,NA,NA,NA,NA,NA,sub-75420920
NA,NA,NA,NA,gelb,red,0,NA,NA,NA,NA,1,6,18,NA,NA,NA,NA,NA,NA,sub-75420920
NA,NA,NA,NA,gelb,yellow,1,NA,NA,NA,NA,1,7,19,NA,NA,NA,NA,NA,NA,sub-75420920
NA,NA,NA,NA,gelb,yellow,1,NA,NA,NA,NA,1,8,20,NA,NA,NA,NA,NA,NA,sub-75420920
NA,NA,NA,NA,rot,yellow,0,NA,NA,NA,NA,1,9,21,NA,NA,NA,NA,NA,NA,sub-75420920
NA,NA,NA,NA,rot,red,1,NA,NA,NA,NA,1,10,22,NA,NA,NA,NA,NA,NA,sub-75420920
NA,NA,NA,NA,blau,blue,1,NA,NA,NA,NA,1,11,23,NA,NA,NA,NA,NA,NA,sub-75420920
NA,NA,NA,NA,NA,NA,NA,NA,NA,NA,NA,NA,NA,NA,NA,NA,NA,NA,NA,NA,sub-75420920
NA,NA,NA,NA,NA,NA,NA,rot,red,r,1,NA,NA,NA,0,0,0,r,1,0.9632351,sub-75420920
NA,NA,NA,NA,NA,NA,NA,blau,yellow,g,0,NA,NA,NA,0,1,1,g,1,1.2228415,sub-75420920
NA,NA,NA,NA,NA,NA,NA,rot,red,r,1,NA,NA,NA,0,2,2,r,1,1.0283812,sub-75420920
NA,NA,NA,NA,NA,NA,NA,gelb,yellow,g,1,NA,NA,NA,0,3,3,g,1,1.1534374,sub-75420920
NA,NA,NA,NA,NA,NA,NA,blau,red,r,0,NA,NA,NA,0,4,4,r,1,2.1075549,sub-75420920
NA,NA,NA,NA,NA,NA,NA,gelb,red,r,0,NA,NA,NA,0,5,5,r,1,0.9494322,sub-75420920
NA,NA,NA,NA,NA,NA,NA,gelb,yellow,g,1,NA,NA,NA,0,6,6,g,1,1.649986,sub-75420920
NA,NA,NA,NA,NA,NA,NA,blau,blue,b,1,NA,NA,NA,0,7,7,b,1,0.9703888,sub-75420920
NA,NA,NA,NA,NA,NA,NA,blau,blue,b,1,NA,NA,NA,0,8,8,b,1,1.0452282,sub-75420920
NA,NA,NA,NA,NA,NA,NA,gelb,blue,b,0,NA,NA,NA,0,9,9,b,1,1.5319918,sub-75420920
NA,NA,NA,NA,NA,NA,NA,rot,yellow,g,0,NA,NA,NA,0,10,10,g,1,1.2033404,sub-75420920
NA,NA,NA,NA,NA,NA,NA,rot,blue,b,0,NA,NA,NA,0,11,11,b,1,1.2099695,sub-75420920
NA,NA,NA,NA,NA,NA,NA,blau,red,r,0,NA,NA,NA,1,0,12,r,1,1.6271281,sub-75420920
NA,NA,NA,NA,NA,NA,NA,blau,blue,b,1,NA,NA,NA,1,1,13,b,1,0.8621257,sub-75420920
NA,NA,NA,NA,NA,NA,NA,rot,red,r,1,NA,NA,NA,1,2,14,r,1,1.1762479,sub-75420920
NA,NA,NA,NA,NA,NA,NA,blau,yellow,g,0,NA,NA,NA,1,3,15,g,1,0.8427549,sub-75420920
NA,NA,NA,NA,NA,NA,NA,blau,blue,b,1,NA,NA,NA,1,4,16,b,1,0.7299404,sub-75420920
NA,NA,NA,NA,NA,NA,NA,gelb,red,r,0,NA,NA,NA,1,5,17,r,1,0.8394022,sub-75420920
NA,NA,NA,NA,NA,NA,NA,gelb,blue,b,0,NA,NA,NA,1,6,18,b,1,0.9604983,sub-75420920
NA,NA,NA,NA,NA,NA,NA,gelb,yellow,g,1,NA,NA,NA,1,7,19,g,1,0.4484941,sub-75420920
NA,NA,NA,NA,NA,NA,NA,rot,red,r,1,NA,NA,NA,1,8,20,r,1,0.4735743,sub-75420920
NA,NA,NA,NA,NA,NA,NA,rot,blue,b,0,NA,NA,NA,1,9,21,b,1,0.6842849,sub-75420920
NA,NA,NA,NA,NA,NA,NA,rot,yellow,g,0,NA,NA,NA,1,10,22,g,1,0.7277721,sub-75420920
NA,NA,NA,NA,NA,NA,NA,gelb,yellow,g,1,NA,NA,NA,1,11,23,g,1,0.5784518,sub-75420920
NA,NA,NA,NA,NA,NA,NA,blau,red,r,0,NA,NA,NA,2,0,24,r,1,0.8309669,sub-75420920
NA,NA,NA,NA,NA,NA,NA,gelb,blue,b,0,NA,NA,NA,2,1,25,b,1,0.6714879,sub-75420920
NA,NA,NA,NA,NA,NA,NA,blau,yellow,g,0,NA,NA,NA,2,2,26,g,1,1.1585267,sub-75420920
NA,NA,NA,NA,NA,NA,NA,rot,red,r,1,NA,NA,NA,2,3,27,r,1,0.6696583,sub-75420920
NA,NA,NA,NA,NA,NA,NA,rot,red,r,1,NA,NA,NA,2,4,28,r,1,0.4721981,sub-75420920
NA,NA,NA,NA,NA,NA,NA,blau,blue,b,1,NA,NA,NA,2,5,29,b,1,0.7102547,sub-75420920
NA,NA,NA,NA,NA,NA,NA,gelb,yellow,g,1,NA,NA,NA,2,6,30,g,1,0.6596451,sub-75420920
NA,NA,NA,NA,NA,NA,NA,rot,yellow,g,0,NA,NA,NA,2,7,31,g,1,0.461415,sub-75420920
NA,NA,NA,NA,NA,NA,NA,gelb,yellow,g,1,NA,NA,NA,2,8,32,g,1,0.5512454,sub-75420920
NA,NA,NA,NA,NA,NA,NA,gelb,red,r,0,NA,NA,NA,2,9,33,r,1,0.7411921,sub-75420920
NA,NA,NA,NA,NA,NA,NA,blau,blue,b,1,NA,NA,NA,2,10,34,b,1,0.4811832,sub-75420920
NA,NA,NA,NA,NA,NA,NA,rot,blue,b,0,NA,NA,NA,2,11,35,b,1,0.4231295,sub-75420920
NA,NA,NA,NA,NA,NA,NA,gelb,yellow,g,1,NA,NA,NA,3,0,36,g,1,0.9018609,sub-75420920
NA,NA,NA,NA,NA,NA,NA,gelb,yellow,g,1,NA,NA,NA,3,1,37,g,1,0.4768543,sub-75420920
NA,NA,NA,NA,NA,NA,NA,rot,red,r,1,NA,NA,NA,3,2,38,r,1,0.9625798,sub-75420920
NA,NA,NA,NA,NA,NA,NA,blau,red,r,0,NA,NA,NA,3,3,39,r,1,0.424874,sub-75420920
NA,NA,NA,NA,NA,NA,NA,rot,yellow,g,0,NA,NA,NA,3,4,40,g,1,1.5287993,sub-75420920
NA,NA,NA,NA,NA,NA,NA,rot,red,r,1,NA,NA,NA,3,5,41,r,1,0.7132266,sub-75420920
NA,NA,NA,NA,NA,NA,NA,gelb,blue,b,0,NA,NA,NA,3,6,42,b,1,1.6353299,sub-75420920
NA,NA,NA,NA,NA,NA,NA,rot,blue,b,0,NA,NA,NA,3,7,43,b,1,0.4600925,sub-75420920
NA,NA,NA,NA,NA,NA,NA,blau,blue,b,1,NA,NA,NA,3,8,44,b,1,0.5444842,sub-75420920
NA,NA,NA,NA,NA,NA,NA,gelb,red,r,0,NA,NA,NA,3,9,45,r,1,1.2837413,sub-75420920
NA,NA,NA,NA,NA,NA,NA,blau,yellow,g,0,NA,NA,NA,3,10,46,g,1,1.2822431,sub-75420920
NA,NA,NA,NA,NA,NA,NA,blau,blue,b,1,NA,NA,NA,3,11,47,b,1,0.6936907,sub-75420920
NA,NA,NA,NA,NA,NA,NA,rot,yellow,g,0,NA,NA,NA,4,0,48,g,1,0.8722986,sub-75420920
NA,NA,NA,NA,NA,NA,NA,gelb,yellow,g,1,NA,NA,NA,4,1,49,g,1,0.5358147,sub-75420920
NA,NA,NA,NA,NA,NA,NA,gelb,yellow,g,1,NA,NA,NA,4,2,50,g,1,0.5845629,sub-75420920
NA,NA,NA,NA,NA,NA,NA,rot,red,r,1,NA,NA,NA,4,3,51,r,1,0.6748941,sub-75420920
NA,NA,NA,NA,NA,NA,NA,rot,blue,b,0,NA,NA,NA,4,4,52,b,1,0.9338164,sub-75420920
NA,NA,NA,NA,NA,NA,NA,blau,blue,b,1,NA,NA,NA,4,5,53,b,1,0.537958,sub-75420920
NA,NA,NA,NA,NA,NA,NA,gelb,blue,b,0,NA,NA,NA,4,6,54,b,1,0.5006207,sub-75420920
NA,NA,NA,NA,NA,NA,NA,gelb,red,r,0,NA,NA,NA,4,7,55,r,1,0.9622527,sub-75420920
NA,NA,NA,NA,NA,NA,NA,blau,blue,b,1,NA,NA,NA,4,8,56,b,1,0.6223237,sub-75420920
NA,NA,NA,NA,NA,NA,NA,blau,red,r,0,NA,NA,NA,4,9,57,r,1,1.2670224,sub-75420920
NA,NA,NA,NA,NA,NA,NA,rot,red,r,1,NA,NA,NA,4,10,58,r,1,0.8771782,sub-75420920
NA,NA,NA,NA,NA,NA,NA,blau,yellow,g,0,NA,NA,NA,4,11,59,g,1,0.5258331,sub-75420920
NA,NA,NA,NA,NA,NA,NA,gelb,red,r,0,NA,NA,NA,5,0,60,r,1,0.7081332,sub-75420920
NA,NA,NA,NA,NA,NA,NA,gelb,yellow,g,1,NA,NA,NA,5,1,61,g,1,0.6671764,sub-75420920
NA,NA,NA,NA,NA,NA,NA,rot,red,r,1,NA,NA,NA,5,2,62,r,1,0.6742559,sub-75420920
NA,NA,NA,NA,NA,NA,NA,blau,blue,b,1,NA,NA,NA,5,3,63,b,1,0.9996811,sub-75420920
NA,NA,NA,NA,NA,NA,NA,gelb,yellow,g,1,NA,NA,NA,5,4,64,g,1,0.9289583,sub-75420920
NA,NA,NA,NA,NA,NA,NA,rot,yellow,g,0,NA,NA,NA,5,5,65,g,1,0.5103752,sub-75420920
NA,NA,NA,NA,NA,NA,NA,gelb,blue,b,0,NA,NA,NA,5,6,66,b,1,1.5935158,sub-75420920
NA,NA,NA,NA,NA,NA,NA,rot,red,r,1,NA,NA,NA,5,7,67,r,1,0.9518247,sub-75420920
NA,NA,NA,NA,NA,NA,NA,rot,blue,b,0,NA,NA,NA,5,8,68,b,1,0.6520593,sub-75420920
NA,NA,NA,NA,NA,NA,NA,blau,blue,b,1,NA,NA,NA,5,9,69,b,1,0.480459,sub-75420920
NA,NA,NA,NA,NA,NA,NA,blau,yellow,g,0,NA,NA,NA,5,10,70,g,1,1.5812842,sub-75420920
NA,NA,NA,NA,NA,NA,NA,blau,red,r,0,NA,NA,NA,5,11,71,r,1,0.9601116,sub-75420920
NA,NA,NA,NA,NA,NA,NA,gelb,yellow,g,1,NA,NA,NA,6,0,72,g,1,0.7402079,sub-75420920
NA,NA,NA,NA,NA,NA,NA,blau,blue,b,1,NA,NA,NA,6,1,73,b,1,0.6534453,sub-75420920
NA,NA,NA,NA,NA,NA,NA,rot,red,r,1,NA,NA,NA,6,2,74,r,1,0.6013983,sub-75420920
NA,NA,NA,NA,NA,NA,NA,rot,blue,b,0,NA,NA,NA,6,3,75,b,1,0.893483,sub-75420920
NA,NA,NA,NA,NA,NA,NA,rot,red,r,1,NA,NA,NA,6,4,76,r,1,1.6620227,sub-75420920
NA,NA,NA,NA,NA,NA,NA,gelb,red,r,0,NA,NA,NA,6,5,77,r,1,0.9528907,sub-75420920
NA,NA,NA,NA,NA,NA,NA,gelb,yellow,g,1,NA,NA,NA,6,6,78,g,1,2.3894653,sub-75420920
NA,NA,NA,NA,NA,NA,NA,blau,blue,b,1,NA,NA,NA,6,7,79,b,1,0.7388379,sub-75420920
NA,NA,NA,NA,NA,NA,NA,blau,red,r,0,NA,NA,NA,6,8,80,r,1,1.3153982,sub-75420920
NA,NA,NA,NA,NA,NA,NA,blau,yellow,g,0,NA,NA,NA,6,9,81,g,1,1.4111465,sub-75420920
NA,NA,NA,NA,NA,NA,NA,gelb,blue,b,0,NA,NA,NA,6,10,82,b,1,1.0296804,sub-75420920
NA,NA,NA,NA,NA,NA,NA,rot,yellow,g,0,NA,NA,NA,6,11,83,g,1,1.4188584,sub-75420920
NA,NA,NA,NA,NA,NA,NA,gelb,yellow,g,1,NA,NA,NA,7,0,84,g,1,0.5862096,sub-75420920
NA,NA,NA,NA,NA,NA,NA,gelb,blue,b,0,NA,NA,NA,7,1,85,b,1,1.0532151,sub-75420920
NA,NA,NA,NA,NA,NA,NA,rot,red,r,1,NA,NA,NA,7,2,86,r,1,0.7023101,sub-75420920
NA,NA,NA,NA,NA,NA,NA,blau,blue,b,1,NA,NA,NA,7,3,87,b,1,0.6252307,sub-75420920
NA,NA,NA,NA,NA,NA,NA,blau,yellow,g,0,NA,NA,NA,7,4,88,g,1,1.6347522,sub-75420920
NA,NA,NA,NA,NA,NA,NA,blau,blue,b,1,NA,NA,NA,7,5,89,b,1,0.7329515,sub-75420920
NA,NA,NA,NA,NA,NA,NA,gelb,red,r,0,NA,NA,NA,7,6,90,r,1,0.9032133,sub-75420920
NA,NA,NA,NA,NA,NA,NA,rot,yellow,g,0,NA,NA,NA,7,7,91,g,1,1.2245833,sub-75420920
NA,NA,NA,NA,NA,NA,NA,rot,blue,b,0,NA,NA,NA,7,8,92,b,1,1.17386,sub-75420920
NA,NA,NA,NA,NA,NA,NA,rot,red,r,1,NA,NA,NA,7,9,93,r,1,0.8341916,sub-75420920
NA,NA,NA,NA,NA,NA,NA,gelb,yellow,g,1,NA,NA,NA,7,10,94,g,1,0.8493943,sub-75420920
NA,NA,NA,NA,NA,NA,NA,blau,red,r,0,NA,NA,NA,7,11,95,r,1,1.9662897,sub-75420920
NA,NA,NA,NA,NA,NA,NA,gelb,yellow,g,1,NA,NA,NA,8,0,96,g,1,1.1531086,sub-75420920
NA,NA,NA,NA,NA,NA,NA,rot,blue,b,0,NA,NA,NA,8,1,97,b,1,0.8896285,sub-75420920
NA,NA,NA,NA,NA,NA,NA,rot,yellow,g,0,NA,NA,NA,8,2,98,g,1,1.6877779,sub-75420920
NA,NA,NA,NA,NA,NA,NA,blau,blue,b,1,NA,NA,NA,8,3,99,b,1,0.7127315,sub-75420920
NA,NA,NA,NA,NA,NA,NA,blau,yellow,g,0,NA,NA,NA,8,4,100,g,1,1.1408477,sub-75420920
NA,NA,NA,NA,NA,NA,NA,gelb,yellow,g,1,NA,NA,NA,8,5,101,g,1,0.7617816,sub-75420920
NA,NA,NA,NA,NA,NA,NA,blau,blue,b,1,NA,NA,NA,8,6,102,b,1,1.9942212,sub-75420920
NA,NA,NA,NA,NA,NA,NA,gelb,blue,b,0,NA,NA,NA,8,7,103,b,1,0.8479461,sub-75420920
NA,NA,NA,NA,NA,NA,NA,gelb,red,r,0,NA,NA,NA,8,8,104,r,1,0.7067397,sub-75420920
NA,NA,NA,NA,NA,NA,NA,rot,red,r,1,NA,NA,NA,8,9,105,r,1,1.229148,sub-75420920
NA,NA,NA,NA,NA,NA,NA,blau,red,r,0,NA,NA,NA,8,10,106,r,1,0.5733909,sub-75420920
NA,NA,NA,NA,NA,NA,NA,rot,red,r,1,NA,NA,NA,8,11,107,r,1,1.1452974,sub-75420920
NA,NA,NA,NA,NA,NA,NA,blau,red,r,0,NA,NA,NA,9,0,108,r,1,0.5917229,sub-75420920
NA,NA,NA,NA,NA,NA,NA,blau,yellow,g,0,NA,NA,NA,9,1,109,g,1,0.7487543,sub-75420920
NA,NA,NA,NA,NA,NA,NA,blau,blue,b,1,NA,NA,NA,9,2,110,b,1,1.2984007,sub-75420920
NA,NA,NA,NA,NA,NA,NA,gelb,blue,b,0,NA,NA,NA,9,3,111,b,1,0.4730187,sub-75420920
NA,NA,NA,NA,NA,NA,NA,gelb,yellow,g,1,NA,NA,NA,9,4,112,g,1,0.8379533,sub-75420920
NA,NA,NA,NA,NA,NA,NA,gelb,yellow,g,1,NA,NA,NA,9,5,113,g,1,0.4682923,sub-75420920
NA,NA,NA,NA,NA,NA,NA,rot,yellow,g,0,NA,NA,NA,9,6,114,g,1,0.597988,sub-75420920
NA,NA,NA,NA,NA,NA,NA,rot,red,r,1,NA,NA,NA,9,7,115,r,1,0.6292637,sub-75420920
NA,NA,NA,NA,NA,NA,NA,rot,blue,b,0,NA,NA,NA,9,8,116,b,1,1.0566665,sub-75420920
NA,NA,NA,NA,NA,NA,NA,rot,red,r,1,NA,NA,NA,9,9,117,r,1,1.9965537,sub-75420920
NA,NA,NA,NA,NA,NA,NA,gelb,red,r,0,NA,NA,NA,9,10,118,r,1,0.8664438,sub-75420920
NA,NA,NA,NA,NA,NA,NA,blau,blue,b,1,NA,NA,NA,9,11,119,b,1,0.602424,sub-75420920
NA,NA,NA,NA,NA,NA,NA,NA,NA,NA,NA,NA,NA,NA,NA,NA,NA,NA,NA,NA,sub-75420920
