wordCTK,colorCTK,corrAnsCTK,congruentCTK,wordPractice,colorPractice,congruentPractice,word,color,corrAns,congruent,trials_practice.thisRepN,trials_practice.thisTrialN,trials_practice.thisN,trials_test.thisRepN,trials_test.thisTrialN,trials_test.thisN,keyResp_test_run.keys,keyResp_test_run.corr,keyResp_test_run.rt,participant
NA,NA,NA,NA,NA,NA,NA,NA,NA,NA,NA,NA,NA,NA,NA,NA,NA,NA,NA,NA,sub-34709096
NA,NA,NA,NA,NA,NA,NA,NA,NA,NA,NA,NA,NA,NA,NA,NA,NA,NA,NA,NA,sub-34709096
test,yellow,g,1,NA,NA,NA,NA,NA,NA,NA,NA,NA,NA,NA,NA,NA,NA,NA,NA,sub-34709096
test,red,r,1,NA,NA,NA,NA,NA,NA,NA,NA,NA,NA,NA,NA,NA,NA,NA,NA,sub-34709096
test,blue,b,1,NA,NA,NA,NA,NA,NA,NA,NA,NA,NA,NA,NA,NA,NA,NA,NA,sub-34709096
test,blue,b,1,NA,NA,NA,NA,NA,NA,NA,NA,NA,NA,NA,NA,NA,NA,NA,NA,sub-34709096
test,yellow,g,1,NA,NA,NA,NA,NA,NA,NA,NA,NA,NA,NA,NA,NA,NA,NA,NA,sub-34709096
test,red,r,1,NA,NA,NA,NA,NA,NA,NA,NA,NA,NA,NA,NA,NA,NA,NA,NA,sub-34709096
test,blue,b,1,NA,NA,NA,NA,NA,NA,NA,NA,NA,NA,NA,NA,NA,NA,NA,NA,sub-34709096
test,red,r,1,NA,NA,NA,NA,NA,NA,NA,NA,NA,NA,NA,NA,NA,NA,NA,NA,sub-34709096
test,yellow,g,1,NA,NA,NA,NA,NA,NA,NA,NA,NA,NA,NA,NA,NA,NA,NA,NA,sub-34709096
test,blue,b,1,NA,NA,NA,NA,NA,NA,NA,NA,NA,NA,NA,NA,NA,NA,NA,NA,sub-34709096
test,red,r,1,NA,NA,NA,NA,NA,NA,NA,NA,NA,NA,NA,NA,NA,NA,NA,NA,sub-34709096
test,yellow,g,1,NA,NA,NA,NA,NA,NA,NA,NA,NA,NA,NA,NA,NA,NA,NA,NA,sub-34709096
NA,NA,NA,NA,NA,NA,NA,NA,NA,NA,NA,NA,NA,NA,NA,NA,NA,NA,NA,NA,sub-34709096
NA,NA,NA,NA,blau,red,0,NA,NA,NA,NA,0,0,0,NA,NA,NA,NA,NA,NA,sub-34709096
NA,NA,NA,NA,rot,red,1,NA,NA,NA,NA,0,1,1,NA,NA,NA,NA,NA,NA,sub-34709096
NA,NA,NA,NA,blau,yellow,0,NA,NA,NA,NA,0,2,2,NA,NA,NA,NA,NA,NA,sub-34709096
NA,NA,NA,NA,gelb,red,0,NA,NA,NA,NA,0,3,3,NA,NA,NA,NA,NA,NA,sub-34709096
NA,NA,NA,NA,blau,blue,1,NA,NA,NA,NA,0,4,4,NA,NA,NA,NA,NA,NA,sub-34709096
NA,NA,NA,NA,gelb,yellow,1,NA,NA,NA,NA,0,5,5,NA,NA,NA,NA,NA,NA,sub-34709096
NA,NA,NA,NA,gelb,blue,0,NA,NA,NA,NA,0,6,6,NA,NA,NA,NA,NA,NA,sub-34709096
NA,NA,NA,NA,gelb,yellow,1,NA,NA,NA,NA,0,7,7,NA,NA,NA,NA,NA,NA,sub-34709096
NA,NA,NA,NA,blau,blue,1,NA,NA,NA,NA,0,8,8,NA,NA,NA,NA,NA,NA,sub-34709096
NA,NA,NA,NA,rot,yellow,0,NA,NA,NA,NA,0,9,9,NA,NA,NA,NA,NA,NA,sub-34709096
NA,NA,NA,NA,rot,red,1,NA,NA,NA,NA,0,10,10,NA,NA,NA,NA,NA,NA,sub-34709096
NA,NA,NA,NA,rot,blue,0,NA,NA,NA,NA,0,11,11,NA,NA,NA,NA,NA,NA,sub-34709096
NA,NA,NA,NA,gelb,red,0,NA,NA,NA,NA,1,0,12,NA,NA,NA,NA,NA,NA,sub-34709096
NA,NA,NA,NA,rot,red,1,NA,NA,NA,NA,1,1,13,NA,NA,NA,NA,NA,NA,sub-34709096
NA,NA,NA,NA,rot,blue,0,NA,NA,NA,NA,1,2,14,NA,NA,NA,NA,NA,NA,sub-34709096
NA,NA,NA,NA,blau,blue,1,NA,NA,NA,NA,1,3,15,NA,NA,NA,NA,NA,NA,sub-34709096
NA,NA,NA,NA,gelb,yellow,1,NA,NA,NA,NA,1,4,16,NA,NA,NA,NA,NA,NA,sub-34709096
NA,NA,NA,NA,rot,red,1,NA,NA,NA,NA,1,5,17,NA,NA,NA,NA,NA,NA,sub-34709096
NA,NA,NA,NA,gelb,yellow,1,NA,NA,NA,NA,1,6,18,NA,NA,NA,NA,NA,NA,sub-34709096
NA,NA,NA,NA,blau,blue,1,NA,NA,NA,NA,1,7,19,NA,NA,NA,NA,NA,NA,sub-34709096
NA,NA,NA,NA,blau,yellow,0,NA,NA,NA,NA,1,8,20,NA,NA,NA,NA,NA,NA,sub-34709096
NA,NA,NA,NA,rot,yellow,0,NA,NA,NA,NA,1,9,21,NA,NA,NA,NA,NA,NA,sub-34709096
NA,NA,NA,NA,blau,red,0,NA,NA,NA,NA,1,10,22,NA,NA,NA,NA,NA,NA,sub-34709096
NA,NA,NA,NA,gelb,blue,0,NA,NA,NA,NA,1,11,23,NA,NA,NA,NA,NA,NA,sub-34709096
NA,NA,NA,NA,NA,NA,NA,NA,NA,NA,NA,NA,NA,NA,NA,NA,NA,NA,NA,NA,sub-34709096
NA,NA,NA,NA,NA,NA,NA,blau,yellow,g,0,NA,NA,NA,0,0,0,g,1,1.7281930999597537,sub-34709096
NA,NA,NA,NA,NA,NA,NA,gelb,red,r,0,NA,NA,NA,0,1,1,r,1,2.5451577000203542,sub-34709096
NA,NA,NA,NA,NA,NA,NA,blau,blue,b,1,NA,NA,NA,0,2,2,b,1,1.5868057000334377,sub-34709096
NA,NA,NA,NA,NA,NA,NA,rot,blue,b,0,NA,NA,NA,0,3,3,b,1,3.337053199997172,sub-34709096
NA,NA,NA,NA,NA,NA,NA,gelb,blue,b,0,NA,NA,NA,0,4,4,b,1,0.9959802000084892,sub-34709096
NA,NA,NA,NA,NA,NA,NA,gelb,yellow,g,1,NA,NA,NA,0,5,5,g,1,0.6205574999912642,sub-34709096
NA,NA,NA,NA,NA,NA,NA,rot,red,r,1,NA,NA,NA,0,6,6,r,1,0.380408399971202,sub-34709096
NA,NA,NA,NA,NA,NA,NA,blau,blue,b,1,NA,NA,NA,0,7,7,b,1,0.839464999968186,sub-34709096
NA,NA,NA,NA,NA,NA,NA,blau,red,r,0,NA,NA,NA,0,8,8,r,1,1.2890186999575235,sub-34709096
NA,NA,NA,NA,NA,NA,NA,rot,yellow,g,0,NA,NA,NA,0,9,9,g,1,0.999692999990657,sub-34709096
NA,NA,NA,NA,NA,NA,NA,gelb,yellow,g,1,NA,NA,NA,0,10,10,g,1,1.0057017999934033,sub-34709096
NA,NA,NA,NA,NA,NA,NA,rot,red,r,1,NA,NA,NA,0,11,11,r,1,1.2614325000322424,sub-34709096
NA,NA,NA,NA,NA,NA,NA,gelb,blue,b,0,NA,NA,NA,1,0,12,b,1,4.355931400030386,sub-34709096
NA,NA,NA,NA,NA,NA,NA,gelb,yellow,g,1,NA,NA,NA,1,1,13,g,1,0.8411464000237174,sub-34709096
NA,NA,NA,NA,NA,NA,NA,blau,red,r,0,NA,NA,NA,1,2,14,r,1,0.33791679999558255,sub-34709096
NA,NA,NA,NA,NA,NA,NA,gelb,red,r,0,NA,NA,NA,1,3,15,r,1,0.587891099974513,sub-34709096
NA,NA,NA,NA,NA,NA,NA,rot,yellow,g,0,NA,NA,NA,1,4,16,g,1,0.9658906999975444,sub-34709096
NA,NA,NA,NA,NA,NA,NA,blau,blue,b,1,NA,NA,NA,1,5,17,b,1,0.8426897999597713,sub-34709096
NA,NA,NA,NA,NA,NA,NA,gelb,yellow,g,1,NA,NA,NA,1,6,18,g,1,0.9977873000316322,sub-34709096
NA,NA,NA,NA,NA,NA,NA,rot,red,r,1,NA,NA,NA,1,7,19,r,1,0.5105859999894165,sub-34709096
NA,NA,NA,NA,NA,NA,NA,blau,blue,b,1,NA,NA,NA,1,8,20,b,1,0.6546406999696046,sub-34709096
NA,NA,NA,NA,NA,NA,NA,rot,blue,b,0,NA,NA,NA,1,9,21,b,1,0.8934262000257149,sub-34709096
NA,NA,NA,NA,NA,NA,NA,rot,red,r,1,NA,NA,NA,1,10,22,r,1,1.5053481999784708,sub-34709096
NA,NA,NA,NA,NA,NA,NA,blau,yellow,g,0,NA,NA,NA,1,11,23,g,1,1.072187900019344,sub-34709096
NA,NA,NA,NA,NA,NA,NA,gelb,red,r,0,NA,NA,NA,2,0,24,r,1,2.404698499944061,sub-34709096
NA,NA,NA,NA,NA,NA,NA,gelb,yellow,g,1,NA,NA,NA,2,1,25,g,1,0.6297464999952354,sub-34709096
NA,NA,NA,NA,NA,NA,NA,blau,blue,b,1,NA,NA,NA,2,2,26,b,1,0.8501939999987371,sub-34709096
NA,NA,NA,NA,NA,NA,NA,rot,red,r,1,NA,NA,NA,2,3,27,r,1,0.6653998999972828,sub-34709096
NA,NA,NA,NA,NA,NA,NA,blau,blue,b,1,NA,NA,NA,2,4,28,b,1,0.7728140000253916,sub-34709096
NA,NA,NA,NA,NA,NA,NA,gelb,blue,b,0,NA,NA,NA,2,5,29,g,0,0.7756676999852061,sub-34709096
NA,NA,NA,NA,NA,NA,NA,rot,red,r,1,NA,NA,NA,2,6,30,r,1,1.0281308999983594,sub-34709096
NA,NA,NA,NA,NA,NA,NA,rot,yellow,g,0,NA,NA,NA,2,7,31,g,1,1.3109065999742595,sub-34709096
NA,NA,NA,NA,NA,NA,NA,gelb,yellow,g,1,NA,NA,NA,2,8,32,g,1,0.7020504000247456,sub-34709096
NA,NA,NA,NA,NA,NA,NA,blau,yellow,g,0,NA,NA,NA,2,9,33,g,1,0.8486491999938153,sub-34709096
NA,NA,NA,NA,NA,NA,NA,rot,blue,b,0,NA,NA,NA,2,10,34,b,1,0.9916704999632202,sub-34709096
NA,NA,NA,NA,NA,NA,NA,blau,red,r,0,NA,NA,NA,2,11,35,r,1,0.9229934000177308,sub-34709096
NA,NA,NA,NA,NA,NA,NA,rot,yellow,g,0,NA,NA,NA,3,0,36,g,1,1.0997946000425145,sub-34709096
NA,NA,NA,NA,NA,NA,NA,rot,red,r,1,NA,NA,NA,3,1,37,r,1,0.9225920999888332,sub-34709096
NA,NA,NA,NA,NA,NA,NA,blau,red,r,0,NA,NA,NA,3,2,38,r,1,0.8435598000069149,sub-34709096
NA,NA,NA,NA,NA,NA,NA,gelb,red,r,0,NA,NA,NA,3,3,39,r,1,1.019923599960748,sub-34709096
NA,NA,NA,NA,NA,NA,NA,gelb,blue,b,0,NA,NA,NA,3,4,40,b,1,0.969688999990467,sub-34709096
NA,NA,NA,NA,NA,NA,NA,blau,blue,b,1,NA,NA,NA,3,5,41,b,1,0.8684106000000611,sub-34709096
NA,NA,NA,NA,NA,NA,NA,rot,red,r,1,NA,NA,NA,3,6,42,r,1,1.2147570000379346,sub-34709096
NA,NA,NA,NA,NA,NA,NA,blau,yellow,g,0,NA,NA,NA,3,7,43,g,1,0.7527923000161536,sub-34709096
NA,NA,NA,NA,NA,NA,NA,rot,blue,b,0,NA,NA,NA,3,8,44,b,1,1.834079699998256,sub-34709096
NA,NA,NA,NA,NA,NA,NA,gelb,yellow,g,1,NA,NA,NA,3,9,45,g,1,1.424726199998986,sub-34709096
NA,NA,NA,NA,NA,NA,NA,blau,blue,b,1,NA,NA,NA,3,10,46,b,1,1.012076499988325,sub-34709096
NA,NA,NA,NA,NA,NA,NA,gelb,yellow,g,1,NA,NA,NA,3,11,47,g,1,0.8016290999948978,sub-34709096
NA,NA,NA,NA,NA,NA,NA,gelb,yellow,g,1,NA,NA,NA,4,0,48,g,1,0.7620320999994874,sub-34709096
NA,NA,NA,NA,NA,NA,NA,blau,yellow,g,0,NA,NA,NA,4,1,49,g,1,0.9428423999925144,sub-34709096
NA,NA,NA,NA,NA,NA,NA,rot,red,r,1,NA,NA,NA,4,2,50,r,1,1.0197152000037022,sub-34709096
NA,NA,NA,NA,NA,NA,NA,blau,blue,b,1,NA,NA,NA,4,3,51,b,1,1.0727896000025794,sub-34709096
NA,NA,NA,NA,NA,NA,NA,blau,blue,b,1,NA,NA,NA,4,4,52,b,1,0.5446766999666579,sub-34709096
NA,NA,NA,NA,NA,NA,NA,gelb,blue,b,0,NA,NA,NA,4,5,53,b,1,0.63343420001911,sub-34709096
NA,NA,NA,NA,NA,NA,NA,gelb,yellow,g,1,NA,NA,NA,4,6,54,g,1,0.8313811999978498,sub-34709096
NA,NA,NA,NA,NA,NA,NA,rot,blue,b,0,NA,NA,NA,4,7,55,b,1,0.6673780000419356,sub-34709096
NA,NA,NA,NA,NA,NA,NA,blau,red,r,0,NA,NA,NA,4,8,56,r,1,1.079399599984754,sub-34709096
NA,NA,NA,NA,NA,NA,NA,gelb,red,r,0,NA,NA,NA,4,9,57,r,1,0.7585715999593958,sub-34709096
NA,NA,NA,NA,NA,NA,NA,rot,yellow,g,0,NA,NA,NA,4,10,58,g,1,0.7924133000196889,sub-34709096
NA,NA,NA,NA,NA,NA,NA,rot,red,r,1,NA,NA,NA,4,11,59,r,1,0.8499219999648631,sub-34709096
NA,NA,NA,NA,NA,NA,NA,rot,red,r,1,NA,NA,NA,5,0,60,r,1,0.8097439999692142,sub-34709096
NA,NA,NA,NA,NA,NA,NA,gelb,red,r,0,NA,NA,NA,5,1,61,r,1,0.7131539999973029,sub-34709096
NA,NA,NA,NA,NA,NA,NA,blau,blue,b,1,NA,NA,NA,5,2,62,b,1,0.5743077999795787,sub-34709096
NA,NA,NA,NA,NA,NA,NA,rot,yellow,g,0,NA,NA,NA,5,3,63,g,1,0.6592378999921493,sub-34709096
NA,NA,NA,NA,NA,NA,NA,blau,red,r,0,NA,NA,NA,5,4,64,r,1,0.7405209999997169,sub-34709096
NA,NA,NA,NA,NA,NA,NA,rot,red,r,1,NA,NA,NA,5,5,65,r,1,0.539525699976366,sub-34709096
NA,NA,NA,NA,NA,NA,NA,rot,blue,b,0,NA,NA,NA,5,6,66,b,1,0.6498551000258885,sub-34709096
NA,NA,NA,NA,NA,NA,NA,gelb,yellow,g,1,NA,NA,NA,5,7,67,g,1,0.5357013999600895,sub-34709096
NA,NA,NA,NA,NA,NA,NA,gelb,blue,b,0,NA,NA,NA,5,8,68,b,1,0.6169931000331417,sub-34709096
NA,NA,NA,NA,NA,NA,NA,gelb,yellow,g,1,NA,NA,NA,5,9,69,g,1,0.7208559999708086,sub-34709096
NA,NA,NA,NA,NA,NA,NA,blau,blue,b,1,NA,NA,NA,5,10,70,b,1,1.2786629000329413,sub-34709096
NA,NA,NA,NA,NA,NA,NA,blau,yellow,g,0,NA,NA,NA,5,11,71,g,1,0.8719030999927782,sub-34709096
NA,NA,NA,NA,NA,NA,NA,blau,blue,b,1,NA,NA,NA,6,0,72,b,1,0.7353851000079885,sub-34709096
NA,NA,NA,NA,NA,NA,NA,rot,blue,b,0,NA,NA,NA,6,1,73,b,1,1.6391306999721564,sub-34709096
NA,NA,NA,NA,NA,NA,NA,rot,yellow,g,0,NA,NA,NA,6,2,74,g,1,0.7113081999705173,sub-34709096
NA,NA,NA,NA,NA,NA,NA,gelb,red,r,0,NA,NA,NA,6,3,75,r,1,0.44088789995294064,sub-34709096
NA,NA,NA,NA,NA,NA,NA,gelb,yellow,g,1,NA,NA,NA,6,4,76,g,1,0.626081999973394,sub-34709096
NA,NA,NA,NA,NA,NA,NA,gelb,yellow,g,1,NA,NA,NA,6,5,77,g,1,0.7166846999898553,sub-34709096
NA,NA,NA,NA,NA,NA,NA,blau,red,r,0,NA,NA,NA,6,6,78,r,1,1.4302694999496453,sub-34709096
NA,NA,NA,NA,NA,NA,NA,gelb,blue,b,0,NA,NA,NA,6,7,79,b,1,0.6229638999793679,sub-34709096
NA,NA,NA,NA,NA,NA,NA,rot,red,r,1,NA,NA,NA,6,8,80,r,1,1.2549348999746144,sub-34709096
NA,NA,NA,NA,NA,NA,NA,rot,red,r,1,NA,NA,NA,6,9,81,r,1,0.5081161999842152,sub-34709096
NA,NA,NA,NA,NA,NA,NA,blau,yellow,g,0,NA,NA,NA,6,10,82,g,1,1.01171270001214,sub-34709096
NA,NA,NA,NA,NA,NA,NA,blau,blue,b,1,NA,NA,NA,6,11,83,b,1,0.8078237999579869,sub-34709096
NA,NA,NA,NA,NA,NA,NA,rot,red,r,1,NA,NA,NA,7,0,84,r,1,0.7083843000000343,sub-34709096
NA,NA,NA,NA,NA,NA,NA,blau,blue,b,1,NA,NA,NA,7,1,85,b,1,0.8906406000023708,sub-34709096
NA,NA,NA,NA,NA,NA,NA,gelb,yellow,g,1,NA,NA,NA,7,2,86,g,1,0.6708557000383735,sub-34709096
NA,NA,NA,NA,NA,NA,NA,gelb,red,r,0,NA,NA,NA,7,3,87,r,1,0.7787773000309244,sub-34709096
NA,NA,NA,NA,NA,NA,NA,blau,red,r,0,NA,NA,NA,7,4,88,r,1,0.6147420999477617,sub-34709096
NA,NA,NA,NA,NA,NA,NA,gelb,yellow,g,1,NA,NA,NA,7,5,89,g,1,0.6294015999883413,sub-34709096
NA,NA,NA,NA,NA,NA,NA,blau,blue,b,1,NA,NA,NA,7,6,90,b,1,0.3580127999885008,sub-34709096
NA,NA,NA,NA,NA,NA,NA,rot,red,r,1,NA,NA,NA,7,7,91,r,1,0.7868450999958441,sub-34709096
NA,NA,NA,NA,NA,NA,NA,rot,yellow,g,0,NA,NA,NA,7,8,92,g,1,0.3690898999921046,sub-34709096
NA,NA,NA,NA,NA,NA,NA,blau,yellow,g,0,NA,NA,NA,7,9,93,g,1,0.3849880999769084,sub-34709096
NA,NA,NA,NA,NA,NA,NA,rot,blue,b,0,NA,NA,NA,7,10,94,b,1,0.6074471999891102,sub-34709096
NA,NA,NA,NA,NA,NA,NA,gelb,blue,b,0,NA,NA,NA,7,11,95,b,1,0.5015379000105895,sub-34709096
NA,NA,NA,NA,NA,NA,NA,blau,yellow,g,0,NA,NA,NA,8,0,96,g,1,0.6525631999829784,sub-34709096
NA,NA,NA,NA,NA,NA,NA,gelb,blue,b,0,NA,NA,NA,8,1,97,b,1,0.7497893999679945,sub-34709096
NA,NA,NA,NA,NA,NA,NA,rot,blue,b,0,NA,NA,NA,8,2,98,b,1,0.5170600999845192,sub-34709096
NA,NA,NA,NA,NA,NA,NA,blau,blue,b,1,NA,NA,NA,8,3,99,b,1,0.5444074000115506,sub-34709096
NA,NA,NA,NA,NA,NA,NA,gelb,yellow,g,1,NA,NA,NA,8,4,100,g,1,0.5645550999906845,sub-34709096
NA,NA,NA,NA,NA,NA,NA,blau,red,r,0,NA,NA,NA,8,5,101,r,1,0.37947019998682663,sub-34709096
NA,NA,NA,NA,NA,NA,NA,gelb,yellow,g,1,NA,NA,NA,8,6,102,g,1,0.5509678000234999,sub-34709096
NA,NA,NA,NA,NA,NA,NA,rot,red,r,1,NA,NA,NA,8,7,103,r,1,0.4385027000098489,sub-34709096
NA,NA,NA,NA,NA,NA,NA,blau,blue,b,1,NA,NA,NA,8,8,104,b,1,0.5434618999715894,sub-34709096
NA,NA,NA,NA,NA,NA,NA,gelb,red,r,0,NA,NA,NA,8,9,105,r,1,0.5552982999943197,sub-34709096
NA,NA,NA,NA,NA,NA,NA,rot,yellow,g,0,NA,NA,NA,8,10,106,g,1,0.5453876999672502,sub-34709096
NA,NA,NA,NA,NA,NA,NA,rot,red,r,1,NA,NA,NA,8,11,107,r,1,0.5425912999780849,sub-34709096
NA,NA,NA,NA,NA,NA,NA,gelb,yellow,g,1,NA,NA,NA,9,0,108,g,1,0.4475790999713354,sub-34709096
NA,NA,NA,NA,NA,NA,NA,blau,blue,b,1,NA,NA,NA,9,1,109,b,1,0.3697022999986075,sub-34709096
NA,NA,NA,NA,NA,NA,NA,rot,blue,b,0,NA,NA,NA,9,2,110,b,1,0.5921904999995604,sub-34709096
NA,NA,NA,NA,NA,NA,NA,rot,red,r,1,NA,NA,NA,9,3,111,r,1,0.5992501000291668,sub-34709096
NA,NA,NA,NA,NA,NA,NA,blau,yellow,g,0,NA,NA,NA,9,4,112,g,1,0.37547149998135865,sub-34709096
NA,NA,NA,NA,NA,NA,NA,blau,blue,b,1,NA,NA,NA,9,5,113,b,1,0.7064385000267066,sub-34709096
NA,NA,NA,NA,NA,NA,NA,gelb,red,r,0,NA,NA,NA,9,6,114,r,1,1.534976499970071,sub-34709096
NA,NA,NA,NA,NA,NA,NA,gelb,yellow,g,1,NA,NA,NA,9,7,115,g,1,0.7925256000016816,sub-34709096
NA,NA,NA,NA,NA,NA,NA,gelb,blue,b,0,NA,NA,NA,9,8,116,b,1,1.5460944999940691,sub-34709096
NA,NA,NA,NA,NA,NA,NA,blau,red,r,0,NA,NA,NA,9,9,117,r,1,1.0376976000261493,sub-34709096
NA,NA,NA,NA,NA,NA,NA,rot,yellow,g,0,NA,NA,NA,9,10,118,g,1,1.448849800042808,sub-34709096
NA,NA,NA,NA,NA,NA,NA,rot,red,r,1,NA,NA,NA,9,11,119,r,1,0.9324854000005872,sub-34709096
NA,NA,NA,NA,NA,NA,NA,NA,NA,NA,NA,NA,NA,NA,NA,NA,NA,NA,NA,NA,sub-34709096
