wordCTK,colorCTK,corrAnsCTK,congruentCTK,wordPractice,colorPractice,congruentPractice,word,color,corrAns,congruent,trials_practice.thisRepN,trials_practice.thisTrialN,trials_practice.thisN,trials_test.thisRepN,trials_test.thisTrialN,trials_test.thisN,keyResp_test_run.keys,keyResp_test_run.corr,keyResp_test_run.rt,participant
NA,NA,NA,NA,NA,NA,NA,NA,NA,NA,NA,NA,NA,NA,NA,NA,NA,NA,NA,NA,sub-3577174
NA,NA,NA,NA,NA,NA,NA,NA,NA,NA,NA,NA,NA,NA,NA,NA,NA,NA,NA,NA,sub-3577174
test,blue,b,1,NA,NA,NA,NA,NA,NA,NA,NA,NA,NA,NA,NA,NA,NA,NA,NA,sub-3577174
test,yellow,g,1,NA,NA,NA,NA,NA,NA,NA,NA,NA,NA,NA,NA,NA,NA,NA,NA,sub-3577174
test,red,r,1,NA,NA,NA,NA,NA,NA,NA,NA,NA,NA,NA,NA,NA,NA,NA,NA,sub-3577174
test,yellow,g,1,NA,NA,NA,NA,NA,NA,NA,NA,NA,NA,NA,NA,NA,NA,NA,NA,sub-3577174
test,blue,b,1,NA,NA,NA,NA,NA,NA,NA,NA,NA,NA,NA,NA,NA,NA,NA,NA,sub-3577174
test,red,r,1,NA,NA,NA,NA,NA,NA,NA,NA,NA,NA,NA,NA,NA,NA,NA,NA,sub-3577174
test,yellow,g,1,NA,NA,NA,NA,NA,NA,NA,NA,NA,NA,NA,NA,NA,NA,NA,NA,sub-3577174
test,red,r,1,NA,NA,NA,NA,NA,NA,NA,NA,NA,NA,NA,NA,NA,NA,NA,NA,sub-3577174
test,blue,b,1,NA,NA,NA,NA,NA,NA,NA,NA,NA,NA,NA,NA,NA,NA,NA,NA,sub-3577174
test,yellow,g,1,NA,NA,NA,NA,NA,NA,NA,NA,NA,NA,NA,NA,NA,NA,NA,NA,sub-3577174
test,red,r,1,NA,NA,NA,NA,NA,NA,NA,NA,NA,NA,NA,NA,NA,NA,NA,NA,sub-3577174
test,blue,b,1,NA,NA,NA,NA,NA,NA,NA,NA,NA,NA,NA,NA,NA,NA,NA,NA,sub-3577174
NA,NA,NA,NA,NA,NA,NA,NA,NA,NA,NA,NA,NA,NA,NA,NA,NA,NA,NA,NA,sub-3577174
NA,NA,NA,NA,gelb,red,0,NA,NA,NA,NA,0,0,0,NA,NA,NA,NA,NA,NA,sub-3577174
NA,NA,NA,NA,blau,blue,1,NA,NA,NA,NA,0,1,1,NA,NA,NA,NA,NA,NA,sub-3577174
NA,NA,NA,NA,rot,red,1,NA,NA,NA,NA,0,2,2,NA,NA,NA,NA,NA,NA,sub-3577174
NA,NA,NA,NA,rot,yellow,0,NA,NA,NA,NA,0,3,3,NA,NA,NA,NA,NA,NA,sub-3577174
NA,NA,NA,NA,blau,blue,1,NA,NA,NA,NA,0,4,4,NA,NA,NA,NA,NA,NA,sub-3577174
NA,NA,NA,NA,blau,red,0,NA,NA,NA,NA,0,5,5,NA,NA,NA,NA,NA,NA,sub-3577174
NA,NA,NA,NA,blau,yellow,0,NA,NA,NA,NA,0,6,6,NA,NA,NA,NA,NA,NA,sub-3577174
NA,NA,NA,NA,rot,red,1,NA,NA,NA,NA,0,7,7,NA,NA,NA,NA,NA,NA,sub-3577174
NA,NA,NA,NA,gelb,blue,0,NA,NA,NA,NA,0,8,8,NA,NA,NA,NA,NA,NA,sub-3577174
NA,NA,NA,NA,gelb,yellow,1,NA,NA,NA,NA,0,9,9,NA,NA,NA,NA,NA,NA,sub-3577174
NA,NA,NA,NA,rot,blue,0,NA,NA,NA,NA,0,10,10,NA,NA,NA,NA,NA,NA,sub-3577174
NA,NA,NA,NA,gelb,yellow,1,NA,NA,NA,NA,0,11,11,NA,NA,NA,NA,NA,NA,sub-3577174
NA,NA,NA,NA,blau,blue,1,NA,NA,NA,NA,1,0,12,NA,NA,NA,NA,NA,NA,sub-3577174
NA,NA,NA,NA,gelb,yellow,1,NA,NA,NA,NA,1,1,13,NA,NA,NA,NA,NA,NA,sub-3577174
NA,NA,NA,NA,gelb,red,0,NA,NA,NA,NA,1,2,14,NA,NA,NA,NA,NA,NA,sub-3577174
NA,NA,NA,NA,rot,red,1,NA,NA,NA,NA,1,3,15,NA,NA,NA,NA,NA,NA,sub-3577174
NA,NA,NA,NA,gelb,blue,0,NA,NA,NA,NA,1,4,16,NA,NA,NA,NA,NA,NA,sub-3577174
NA,NA,NA,NA,gelb,yellow,1,NA,NA,NA,NA,1,5,17,NA,NA,NA,NA,NA,NA,sub-3577174
NA,NA,NA,NA,rot,red,1,NA,NA,NA,NA,1,6,18,NA,NA,NA,NA,NA,NA,sub-3577174
NA,NA,NA,NA,blau,yellow,0,NA,NA,NA,NA,1,7,19,NA,NA,NA,NA,NA,NA,sub-3577174
NA,NA,NA,NA,rot,yellow,0,NA,NA,NA,NA,1,8,20,NA,NA,NA,NA,NA,NA,sub-3577174
NA,NA,NA,NA,blau,blue,1,NA,NA,NA,NA,1,9,21,NA,NA,NA,NA,NA,NA,sub-3577174
NA,NA,NA,NA,rot,blue,0,NA,NA,NA,NA,1,10,22,NA,NA,NA,NA,NA,NA,sub-3577174
NA,NA,NA,NA,blau,red,0,NA,NA,NA,NA,1,11,23,NA,NA,NA,NA,NA,NA,sub-3577174
NA,NA,NA,NA,NA,NA,NA,NA,NA,NA,NA,NA,NA,NA,NA,NA,NA,NA,NA,NA,sub-3577174
NA,NA,NA,NA,NA,NA,NA,rot,red,r,1,NA,NA,NA,0,0,0,r,1,0.5675766,sub-3577174
NA,NA,NA,NA,NA,NA,NA,rot,yellow,g,0,NA,NA,NA,0,1,1,g,1,0.6756563,sub-3577174
NA,NA,NA,NA,NA,NA,NA,gelb,yellow,g,1,NA,NA,NA,0,2,2,g,1,0.6118475,sub-3577174
NA,NA,NA,NA,NA,NA,NA,gelb,red,r,0,NA,NA,NA,0,3,3,r,1,0.5743947,sub-3577174
NA,NA,NA,NA,NA,NA,NA,blau,blue,b,1,NA,NA,NA,0,4,4,b,1,0.4558719,sub-3577174
NA,NA,NA,NA,NA,NA,NA,rot,blue,b,0,NA,NA,NA,0,5,5,b,1,0.7111649,sub-3577174
NA,NA,NA,NA,NA,NA,NA,blau,blue,b,1,NA,NA,NA,0,6,6,b,1,0.4707335,sub-3577174
NA,NA,NA,NA,NA,NA,NA,blau,yellow,g,0,NA,NA,NA,0,7,7,g,1,0.81654,sub-3577174
NA,NA,NA,NA,NA,NA,NA,blau,red,r,0,NA,NA,NA,0,8,8,r,1,0.870428,sub-3577174
NA,NA,NA,NA,NA,NA,NA,gelb,yellow,g,1,NA,NA,NA,0,9,9,g,1,0.706395,sub-3577174
NA,NA,NA,NA,NA,NA,NA,gelb,blue,b,0,NA,NA,NA,0,10,10,b,1,0.709788,sub-3577174
NA,NA,NA,NA,NA,NA,NA,rot,red,r,1,NA,NA,NA,0,11,11,r,1,0.5942698,sub-3577174
NA,NA,NA,NA,NA,NA,NA,gelb,blue,b,0,NA,NA,NA,1,0,12,b,1,1.0865598,sub-3577174
NA,NA,NA,NA,NA,NA,NA,blau,yellow,g,0,NA,NA,NA,1,1,13,g,1,0.5576175,sub-3577174
NA,NA,NA,NA,NA,NA,NA,gelb,red,r,0,NA,NA,NA,1,2,14,r,1,0.98478,sub-3577174
NA,NA,NA,NA,NA,NA,NA,blau,red,r,0,NA,NA,NA,1,3,15,r,1,0.672623,sub-3577174
NA,NA,NA,NA,NA,NA,NA,gelb,yellow,g,1,NA,NA,NA,1,4,16,g,1,0.6578274,sub-3577174
NA,NA,NA,NA,NA,NA,NA,gelb,yellow,g,1,NA,NA,NA,1,5,17,g,1,0.3484908,sub-3577174
NA,NA,NA,NA,NA,NA,NA,blau,blue,b,1,NA,NA,NA,1,6,18,b,1,0.5076875,sub-3577174
NA,NA,NA,NA,NA,NA,NA,blau,blue,b,1,NA,NA,NA,1,7,19,b,1,0.5441049,sub-3577174
NA,NA,NA,NA,NA,NA,NA,rot,yellow,g,0,NA,NA,NA,1,8,20,g,1,1.248084,sub-3577174
NA,NA,NA,NA,NA,NA,NA,rot,blue,b,0,NA,NA,NA,1,9,21,b,1,0.9592306,sub-3577174
NA,NA,NA,NA,NA,NA,NA,rot,red,r,1,NA,NA,NA,1,10,22,r,1,0.5731201,sub-3577174
NA,NA,NA,NA,NA,NA,NA,rot,red,r,1,NA,NA,NA,1,11,23,r,1,0.867976,sub-3577174
NA,NA,NA,NA,NA,NA,NA,blau,blue,b,1,NA,NA,NA,2,0,24,b,1,0.414845,sub-3577174
NA,NA,NA,NA,NA,NA,NA,blau,blue,b,1,NA,NA,NA,2,1,25,b,1,0.4381303,sub-3577174
NA,NA,NA,NA,NA,NA,NA,blau,red,r,0,NA,NA,NA,2,2,26,r,1,0.7214417,sub-3577174
NA,NA,NA,NA,NA,NA,NA,gelb,yellow,g,1,NA,NA,NA,2,3,27,g,1,0.552127,sub-3577174
NA,NA,NA,NA,NA,NA,NA,gelb,blue,b,0,NA,NA,NA,2,4,28,b,1,1.211098,sub-3577174
NA,NA,NA,NA,NA,NA,NA,rot,red,r,1,NA,NA,NA,2,5,29,r,1,0.6254723,sub-3577174
NA,NA,NA,NA,NA,NA,NA,blau,yellow,g,0,NA,NA,NA,2,6,30,g,1,0.672005,sub-3577174
NA,NA,NA,NA,NA,NA,NA,gelb,yellow,g,1,NA,NA,NA,2,7,31,g,1,0.4409821,sub-3577174
NA,NA,NA,NA,NA,NA,NA,gelb,red,r,0,NA,NA,NA,2,8,32,r,1,0.4228402,sub-3577174
NA,NA,NA,NA,NA,NA,NA,rot,red,r,1,NA,NA,NA,2,9,33,r,1,0.4311337,sub-3577174
NA,NA,NA,NA,NA,NA,NA,rot,yellow,g,0,NA,NA,NA,2,10,34,g,1,0.5602438,sub-3577174
NA,NA,NA,NA,NA,NA,NA,rot,blue,b,0,NA,NA,NA,2,11,35,b,1,1.2095399,sub-3577174
NA,NA,NA,NA,NA,NA,NA,rot,red,r,1,NA,NA,NA,3,0,36,r,1,1.1353418,sub-3577174
NA,NA,NA,NA,NA,NA,NA,blau,blue,b,1,NA,NA,NA,3,1,37,b,1,0.5660496,sub-3577174
NA,NA,NA,NA,NA,NA,NA,blau,red,r,0,NA,NA,NA,3,2,38,b,0,0.895405,sub-3577174
NA,NA,NA,NA,NA,NA,NA,gelb,blue,b,0,NA,NA,NA,3,3,39,b,1,0.8666856,sub-3577174
NA,NA,NA,NA,NA,NA,NA,rot,yellow,g,0,NA,NA,NA,3,4,40,g,1,0.7559128,sub-3577174
NA,NA,NA,NA,NA,NA,NA,rot,blue,b,0,NA,NA,NA,3,5,41,b,1,0.7559227,sub-3577174
NA,NA,NA,NA,NA,NA,NA,blau,blue,b,1,NA,NA,NA,3,6,42,b,1,0.4850212,sub-3577174
NA,NA,NA,NA,NA,NA,NA,gelb,yellow,g,1,NA,NA,NA,3,7,43,g,1,1.3591319,sub-3577174
NA,NA,NA,NA,NA,NA,NA,gelb,red,r,0,NA,NA,NA,3,8,44,r,1,0.6669619,sub-3577174
NA,NA,NA,NA,NA,NA,NA,rot,red,r,1,NA,NA,NA,3,9,45,r,1,0.4301196,sub-3577174
NA,NA,NA,NA,NA,NA,NA,gelb,yellow,g,1,NA,NA,NA,3,10,46,b,0,0.508919,sub-3577174
NA,NA,NA,NA,NA,NA,NA,blau,yellow,g,0,NA,NA,NA,3,11,47,g,1,1.0427225,sub-3577174
NA,NA,NA,NA,NA,NA,NA,rot,red,r,1,NA,NA,NA,4,0,48,r,1,0.6171784,sub-3577174
NA,NA,NA,NA,NA,NA,NA,rot,blue,b,0,NA,NA,NA,4,1,49,b,1,0.6611961,sub-3577174
NA,NA,NA,NA,NA,NA,NA,rot,yellow,g,0,NA,NA,NA,4,2,50,g,1,1.2113658,sub-3577174
NA,NA,NA,NA,NA,NA,NA,blau,red,r,0,NA,NA,NA,4,3,51,r,1,2.6394039,sub-3577174
NA,NA,NA,NA,NA,NA,NA,blau,blue,b,1,NA,NA,NA,4,4,52,b,1,1.5072765,sub-3577174
NA,NA,NA,NA,NA,NA,NA,gelb,yellow,g,1,NA,NA,NA,4,5,53,g,1,0.6606379,sub-3577174
NA,NA,NA,NA,NA,NA,NA,gelb,blue,b,0,NA,NA,NA,4,6,54,b,1,2.2845973,sub-3577174
NA,NA,NA,NA,NA,NA,NA,rot,red,r,1,NA,NA,NA,4,7,55,r,1,0.6624764,sub-3577174
NA,NA,NA,NA,NA,NA,NA,gelb,yellow,g,1,NA,NA,NA,4,8,56,g,1,0.5671624,sub-3577174
NA,NA,NA,NA,NA,NA,NA,blau,blue,b,1,NA,NA,NA,4,9,57,b,1,0.3823793,sub-3577174
NA,NA,NA,NA,NA,NA,NA,gelb,red,r,0,NA,NA,NA,4,10,58,r,1,1.7555178,sub-3577174
NA,NA,NA,NA,NA,NA,NA,blau,yellow,g,0,NA,NA,NA,4,11,59,g,1,0.529287,sub-3577174
NA,NA,NA,NA,NA,NA,NA,blau,red,r,0,NA,NA,NA,5,0,60,r,1,0.4681252,sub-3577174
NA,NA,NA,NA,NA,NA,NA,rot,blue,b,0,NA,NA,NA,5,1,61,b,1,0.5542233,sub-3577174
NA,NA,NA,NA,NA,NA,NA,rot,red,r,1,NA,NA,NA,5,2,62,r,1,0.5376133,sub-3577174
NA,NA,NA,NA,NA,NA,NA,rot,yellow,g,0,NA,NA,NA,5,3,63,g,1,0.6685602,sub-3577174
NA,NA,NA,NA,NA,NA,NA,blau,blue,b,1,NA,NA,NA,5,4,64,b,1,0.4373662,sub-3577174
NA,NA,NA,NA,NA,NA,NA,rot,red,r,1,NA,NA,NA,5,5,65,r,1,0.7898318,sub-3577174
NA,NA,NA,NA,NA,NA,NA,gelb,yellow,g,1,NA,NA,NA,5,6,66,g,1,0.6245031,sub-3577174
NA,NA,NA,NA,NA,NA,NA,gelb,blue,b,0,NA,NA,NA,5,7,67,b,1,0.890073,sub-3577174
NA,NA,NA,NA,NA,NA,NA,blau,blue,b,1,NA,NA,NA,5,8,68,b,1,0.570076,sub-3577174
NA,NA,NA,NA,NA,NA,NA,blau,yellow,g,0,NA,NA,NA,5,9,69,g,1,0.3726454,sub-3577174
NA,NA,NA,NA,NA,NA,NA,gelb,yellow,g,1,NA,NA,NA,5,10,70,g,1,0.6418017,sub-3577174
NA,NA,NA,NA,NA,NA,NA,gelb,red,r,0,NA,NA,NA,5,11,71,b,0,1.39415,sub-3577174
NA,NA,NA,NA,NA,NA,NA,blau,blue,b,1,NA,NA,NA,6,0,72,b,1,0.7072384,sub-3577174
NA,NA,NA,NA,NA,NA,NA,gelb,blue,b,0,NA,NA,NA,6,1,73,b,1,0.5617406,sub-3577174
NA,NA,NA,NA,NA,NA,NA,rot,red,r,1,NA,NA,NA,6,2,74,r,1,0.5644068,sub-3577174
NA,NA,NA,NA,NA,NA,NA,gelb,red,r,0,NA,NA,NA,6,3,75,r,1,1.036189,sub-3577174
NA,NA,NA,NA,NA,NA,NA,gelb,yellow,g,1,NA,NA,NA,6,4,76,g,1,0.4175224,sub-3577174
NA,NA,NA,NA,NA,NA,NA,blau,blue,b,1,NA,NA,NA,6,5,77,b,1,0.4839278,sub-3577174
NA,NA,NA,NA,NA,NA,NA,gelb,yellow,g,1,NA,NA,NA,6,6,78,r,0,1.2275117,sub-3577174
NA,NA,NA,NA,NA,NA,NA,rot,red,r,1,NA,NA,NA,6,7,79,r,1,2.2886158,sub-3577174
NA,NA,NA,NA,NA,NA,NA,blau,yellow,g,0,NA,NA,NA,6,8,80,g,1,0.5212185,sub-3577174
NA,NA,NA,NA,NA,NA,NA,blau,red,r,0,NA,NA,NA,6,9,81,r,1,1.4813893,sub-3577174
NA,NA,NA,NA,NA,NA,NA,rot,blue,b,0,NA,NA,NA,6,10,82,b,1,0.5876492,sub-3577174
NA,NA,NA,NA,NA,NA,NA,rot,yellow,g,0,NA,NA,NA,6,11,83,g,1,0.7429262,sub-3577174
NA,NA,NA,NA,NA,NA,NA,rot,yellow,g,0,NA,NA,NA,7,0,84,g,1,0.6064336,sub-3577174
NA,NA,NA,NA,NA,NA,NA,gelb,yellow,g,1,NA,NA,NA,7,1,85,g,1,0.7570278,sub-3577174
NA,NA,NA,NA,NA,NA,NA,rot,blue,b,0,NA,NA,NA,7,2,86,b,1,1.6836884,sub-3577174
NA,NA,NA,NA,NA,NA,NA,gelb,yellow,g,1,NA,NA,NA,7,3,87,g,1,0.6592342,sub-3577174
NA,NA,NA,NA,NA,NA,NA,blau,yellow,g,0,NA,NA,NA,7,4,88,g,1,0.5027291,sub-3577174
NA,NA,NA,NA,NA,NA,NA,rot,red,r,1,NA,NA,NA,7,5,89,r,1,0.6648211,sub-3577174
NA,NA,NA,NA,NA,NA,NA,gelb,red,r,0,NA,NA,NA,7,6,90,r,1,0.7665101,sub-3577174
NA,NA,NA,NA,NA,NA,NA,blau,red,r,0,NA,NA,NA,7,7,91,r,1,0.6226498,sub-3577174
NA,NA,NA,NA,NA,NA,NA,rot,red,r,1,NA,NA,NA,7,8,92,r,1,0.6495181,sub-3577174
NA,NA,NA,NA,NA,NA,NA,blau,blue,b,1,NA,NA,NA,7,9,93,b,1,0.7625946,sub-3577174
NA,NA,NA,NA,NA,NA,NA,gelb,blue,b,0,NA,NA,NA,7,10,94,b,1,0.4394383,sub-3577174
NA,NA,NA,NA,NA,NA,NA,blau,blue,b,1,NA,NA,NA,7,11,95,b,1,0.3945304,sub-3577174
NA,NA,NA,NA,NA,NA,NA,rot,blue,b,0,NA,NA,NA,8,0,96,b,1,0.3640532,sub-3577174
NA,NA,NA,NA,NA,NA,NA,blau,red,r,0,NA,NA,NA,8,1,97,r,1,0.5376203,sub-3577174
NA,NA,NA,NA,NA,NA,NA,rot,red,r,1,NA,NA,NA,8,2,98,r,1,0.3487889,sub-3577174
NA,NA,NA,NA,NA,NA,NA,gelb,yellow,g,1,NA,NA,NA,8,3,99,g,1,0.4201601,sub-3577174
NA,NA,NA,NA,NA,NA,NA,blau,blue,b,1,NA,NA,NA,8,4,100,b,1,0.4604491,sub-3577174
NA,NA,NA,NA,NA,NA,NA,gelb,red,r,0,NA,NA,NA,8,5,101,r,1,0.7807832,sub-3577174
NA,NA,NA,NA,NA,NA,NA,gelb,yellow,g,1,NA,NA,NA,8,6,102,g,1,0.5039941,sub-3577174
NA,NA,NA,NA,NA,NA,NA,blau,yellow,g,0,NA,NA,NA,8,7,103,g,1,0.6018772,sub-3577174
NA,NA,NA,NA,NA,NA,NA,gelb,blue,b,0,NA,NA,NA,8,8,104,b,1,0.4308778,sub-3577174
NA,NA,NA,NA,NA,NA,NA,blau,blue,b,1,NA,NA,NA,8,9,105,b,1,0.3821013,sub-3577174
NA,NA,NA,NA,NA,NA,NA,rot,yellow,g,0,NA,NA,NA,8,10,106,g,1,0.7311869,sub-3577174
NA,NA,NA,NA,NA,NA,NA,rot,red,r,1,NA,NA,NA,8,11,107,r,1,0.6251923,sub-3577174
NA,NA,NA,NA,NA,NA,NA,blau,red,r,0,NA,NA,NA,9,0,108,r,1,0.428202,sub-3577174
NA,NA,NA,NA,NA,NA,NA,rot,red,r,1,NA,NA,NA,9,1,109,r,1,0.4195335,sub-3577174
NA,NA,NA,NA,NA,NA,NA,blau,blue,b,1,NA,NA,NA,9,2,110,b,1,0.7362582,sub-3577174
NA,NA,NA,NA,NA,NA,NA,blau,blue,b,1,NA,NA,NA,9,3,111,b,1,0.625549,sub-3577174
NA,NA,NA,NA,NA,NA,NA,gelb,yellow,g,1,NA,NA,NA,9,4,112,b,0,0.757597,sub-3577174
NA,NA,NA,NA,NA,NA,NA,rot,red,r,1,NA,NA,NA,9,5,113,r,1,0.6263994,sub-3577174
NA,NA,NA,NA,NA,NA,NA,gelb,blue,b,0,NA,NA,NA,9,6,114,b,1,0.848566,sub-3577174
NA,NA,NA,NA,NA,NA,NA,gelb,red,r,0,NA,NA,NA,9,7,115,r,1,0.4467981,sub-3577174
NA,NA,NA,NA,NA,NA,NA,rot,yellow,g,0,NA,NA,NA,9,8,116,g,1,0.5330597,sub-3577174
NA,NA,NA,NA,NA,NA,NA,gelb,yellow,g,1,NA,NA,NA,9,9,117,g,1,0.5011057,sub-3577174
NA,NA,NA,NA,NA,NA,NA,blau,yellow,g,0,NA,NA,NA,9,10,118,g,1,0.4476806,sub-3577174
NA,NA,NA,NA,NA,NA,NA,rot,blue,b,0,NA,NA,NA,9,11,119,b,1,0.6857368,sub-3577174
NA,NA,NA,NA,NA,NA,NA,NA,NA,NA,NA,NA,NA,NA,NA,NA,NA,NA,NA,NA,sub-3577174
