wordCTK,colorCTK,corrAnsCTK,congruentCTK,wordPractice,colorPractice,congruentPractice,word,color,corrAns,congruent,trials_practice.thisRepN,trials_practice.thisTrialN,trials_practice.thisN,trials_test.thisRepN,trials_test.thisTrialN,trials_test.thisN,keyResp_test_run.keys,keyResp_test_run.corr,keyResp_test_run.rt,participant
NA,NA,NA,NA,NA,NA,NA,NA,NA,NA,NA,NA,NA,NA,NA,NA,NA,NA,NA,NA,sub-33578638
NA,NA,NA,NA,NA,NA,NA,NA,NA,NA,NA,NA,NA,NA,NA,NA,NA,NA,NA,NA,sub-33578638
test,blue,b,1,NA,NA,NA,NA,NA,NA,NA,NA,NA,NA,NA,NA,NA,NA,NA,NA,sub-33578638
test,red,r,1,NA,NA,NA,NA,NA,NA,NA,NA,NA,NA,NA,NA,NA,NA,NA,NA,sub-33578638
test,yellow,g,1,NA,NA,NA,NA,NA,NA,NA,NA,NA,NA,NA,NA,NA,NA,NA,NA,sub-33578638
test,yellow,g,1,NA,NA,NA,NA,NA,NA,NA,NA,NA,NA,NA,NA,NA,NA,NA,NA,sub-33578638
test,blue,b,1,NA,NA,NA,NA,NA,NA,NA,NA,NA,NA,NA,NA,NA,NA,NA,NA,sub-33578638
test,red,r,1,NA,NA,NA,NA,NA,NA,NA,NA,NA,NA,NA,NA,NA,NA,NA,NA,sub-33578638
test,blue,b,1,NA,NA,NA,NA,NA,NA,NA,NA,NA,NA,NA,NA,NA,NA,NA,NA,sub-33578638
test,red,r,1,NA,NA,NA,NA,NA,NA,NA,NA,NA,NA,NA,NA,NA,NA,NA,NA,sub-33578638
test,yellow,g,1,NA,NA,NA,NA,NA,NA,NA,NA,NA,NA,NA,NA,NA,NA,NA,NA,sub-33578638
test,yellow,g,1,NA,NA,NA,NA,NA,NA,NA,NA,NA,NA,NA,NA,NA,NA,NA,NA,sub-33578638
test,red,r,1,NA,NA,NA,NA,NA,NA,NA,NA,NA,NA,NA,NA,NA,NA,NA,NA,sub-33578638
test,blue,b,1,NA,NA,NA,NA,NA,NA,NA,NA,NA,NA,NA,NA,NA,NA,NA,NA,sub-33578638
NA,NA,NA,NA,NA,NA,NA,NA,NA,NA,NA,NA,NA,NA,NA,NA,NA,NA,NA,NA,sub-33578638
NA,NA,NA,NA,rot,yellow,0,NA,NA,NA,NA,0,0,0,NA,NA,NA,NA,NA,NA,sub-33578638
NA,NA,NA,NA,gelb,yellow,1,NA,NA,NA,NA,0,1,1,NA,NA,NA,NA,NA,NA,sub-33578638
NA,NA,NA,NA,gelb,blue,0,NA,NA,NA,NA,0,2,2,NA,NA,NA,NA,NA,NA,sub-33578638
NA,NA,NA,NA,rot,blue,0,NA,NA,NA,NA,0,3,3,NA,NA,NA,NA,NA,NA,sub-33578638
NA,NA,NA,NA,blau,yellow,0,NA,NA,NA,NA,0,4,4,NA,NA,NA,NA,NA,NA,sub-33578638
NA,NA,NA,NA,blau,red,0,NA,NA,NA,NA,0,5,5,NA,NA,NA,NA,NA,NA,sub-33578638
NA,NA,NA,NA,gelb,red,0,NA,NA,NA,NA,0,6,6,NA,NA,NA,NA,NA,NA,sub-33578638
NA,NA,NA,NA,rot,red,1,NA,NA,NA,NA,0,7,7,NA,NA,NA,NA,NA,NA,sub-33578638
NA,NA,NA,NA,blau,blue,1,NA,NA,NA,NA,0,8,8,NA,NA,NA,NA,NA,NA,sub-33578638
NA,NA,NA,NA,blau,blue,1,NA,NA,NA,NA,0,9,9,NA,NA,NA,NA,NA,NA,sub-33578638
NA,NA,NA,NA,gelb,yellow,1,NA,NA,NA,NA,0,10,10,NA,NA,NA,NA,NA,NA,sub-33578638
NA,NA,NA,NA,rot,red,1,NA,NA,NA,NA,0,11,11,NA,NA,NA,NA,NA,NA,sub-33578638
NA,NA,NA,NA,blau,blue,1,NA,NA,NA,NA,1,0,12,NA,NA,NA,NA,NA,NA,sub-33578638
NA,NA,NA,NA,rot,red,1,NA,NA,NA,NA,1,1,13,NA,NA,NA,NA,NA,NA,sub-33578638
NA,NA,NA,NA,rot,red,1,NA,NA,NA,NA,1,2,14,NA,NA,NA,NA,NA,NA,sub-33578638
NA,NA,NA,NA,blau,blue,1,NA,NA,NA,NA,1,3,15,NA,NA,NA,NA,NA,NA,sub-33578638
NA,NA,NA,NA,gelb,blue,0,NA,NA,NA,NA,1,4,16,NA,NA,NA,NA,NA,NA,sub-33578638
NA,NA,NA,NA,gelb,yellow,1,NA,NA,NA,NA,1,5,17,NA,NA,NA,NA,NA,NA,sub-33578638
NA,NA,NA,NA,rot,yellow,0,NA,NA,NA,NA,1,6,18,NA,NA,NA,NA,NA,NA,sub-33578638
NA,NA,NA,NA,blau,red,0,NA,NA,NA,NA,1,7,19,NA,NA,NA,NA,NA,NA,sub-33578638
NA,NA,NA,NA,gelb,red,0,NA,NA,NA,NA,1,8,20,NA,NA,NA,NA,NA,NA,sub-33578638
NA,NA,NA,NA,gelb,yellow,1,NA,NA,NA,NA,1,9,21,NA,NA,NA,NA,NA,NA,sub-33578638
NA,NA,NA,NA,rot,blue,0,NA,NA,NA,NA,1,10,22,NA,NA,NA,NA,NA,NA,sub-33578638
NA,NA,NA,NA,blau,yellow,0,NA,NA,NA,NA,1,11,23,NA,NA,NA,NA,NA,NA,sub-33578638
NA,NA,NA,NA,NA,NA,NA,NA,NA,NA,NA,NA,NA,NA,NA,NA,NA,NA,NA,NA,sub-33578638
NA,NA,NA,NA,NA,NA,NA,rot,blue,b,0,NA,NA,NA,0,0,0,b,1,0.9706767999450676,sub-33578638
NA,NA,NA,NA,NA,NA,NA,gelb,yellow,g,1,NA,NA,NA,0,1,1,g,1,0.9946210000198334,sub-33578638
NA,NA,NA,NA,NA,NA,NA,blau,blue,b,1,NA,NA,NA,0,2,2,b,1,0.8862472999608144,sub-33578638
NA,NA,NA,NA,NA,NA,NA,rot,red,r,1,NA,NA,NA,0,3,3,r,1,0.6290248999721371,sub-33578638
NA,NA,NA,NA,NA,NA,NA,rot,red,r,1,NA,NA,NA,0,4,4,r,1,0.7307760000112467,sub-33578638
NA,NA,NA,NA,NA,NA,NA,blau,red,r,0,NA,NA,NA,0,5,5,r,1,0.8146842999849468,sub-33578638
NA,NA,NA,NA,NA,NA,NA,blau,yellow,g,0,NA,NA,NA,0,6,6,g,1,0.7605594000197016,sub-33578638
NA,NA,NA,NA,NA,NA,NA,gelb,yellow,g,1,NA,NA,NA,0,7,7,g,1,0.7489164000144228,sub-33578638
NA,NA,NA,NA,NA,NA,NA,blau,blue,b,1,NA,NA,NA,0,8,8,b,1,0.7672001000028104,sub-33578638
NA,NA,NA,NA,NA,NA,NA,gelb,red,r,0,NA,NA,NA,0,9,9,r,1,0.6092636000248604,sub-33578638
NA,NA,NA,NA,NA,NA,NA,rot,yellow,g,0,NA,NA,NA,0,10,10,g,1,0.6720324999769218,sub-33578638
NA,NA,NA,NA,NA,NA,NA,gelb,blue,b,0,NA,NA,NA,0,11,11,b,1,0.4209791999892332,sub-33578638
NA,NA,NA,NA,NA,NA,NA,blau,blue,b,1,NA,NA,NA,1,0,12,b,1,0.7320643000421114,sub-33578638
NA,NA,NA,NA,NA,NA,NA,rot,red,r,1,NA,NA,NA,1,1,13,r,1,0.7686223000055179,sub-33578638
NA,NA,NA,NA,NA,NA,NA,gelb,yellow,g,1,NA,NA,NA,1,2,14,g,1,0.7270075000124052,sub-33578638
NA,NA,NA,NA,NA,NA,NA,gelb,blue,b,0,NA,NA,NA,1,3,15,b,1,0.8052755999960937,sub-33578638
NA,NA,NA,NA,NA,NA,NA,blau,blue,b,1,NA,NA,NA,1,4,16,b,1,0.7157598999910988,sub-33578638
NA,NA,NA,NA,NA,NA,NA,blau,red,r,0,NA,NA,NA,1,5,17,r,1,0.7061493000364862,sub-33578638
NA,NA,NA,NA,NA,NA,NA,rot,red,r,1,NA,NA,NA,1,6,18,r,1,0.6123213999671862,sub-33578638
NA,NA,NA,NA,NA,NA,NA,gelb,yellow,g,1,NA,NA,NA,1,7,19,g,1,0.6414345999946818,sub-33578638
NA,NA,NA,NA,NA,NA,NA,rot,yellow,g,0,NA,NA,NA,1,8,20,g,1,0.6191429999889806,sub-33578638
NA,NA,NA,NA,NA,NA,NA,rot,blue,b,0,NA,NA,NA,1,9,21,b,1,0.6802369999932125,sub-33578638
NA,NA,NA,NA,NA,NA,NA,gelb,red,r,0,NA,NA,NA,1,10,22,r,1,0.9012264999910258,sub-33578638
NA,NA,NA,NA,NA,NA,NA,blau,yellow,g,0,NA,NA,NA,1,11,23,g,1,0.8162718000239693,sub-33578638
NA,NA,NA,NA,NA,NA,NA,rot,yellow,g,0,NA,NA,NA,2,0,24,g,1,0.7350521999760531,sub-33578638
NA,NA,NA,NA,NA,NA,NA,rot,blue,b,0,NA,NA,NA,2,1,25,b,1,0.4772866999846883,sub-33578638
NA,NA,NA,NA,NA,NA,NA,rot,red,r,1,NA,NA,NA,2,2,26,r,1,0.48167529999045655,sub-33578638
NA,NA,NA,NA,NA,NA,NA,gelb,red,r,0,NA,NA,NA,2,3,27,r,1,0.9214780000038444,sub-33578638
NA,NA,NA,NA,NA,NA,NA,gelb,blue,b,0,NA,NA,NA,2,4,28,b,1,0.8299838000093587,sub-33578638
NA,NA,NA,NA,NA,NA,NA,blau,red,r,0,NA,NA,NA,2,5,29,r,1,0.696397399995476,sub-33578638
NA,NA,NA,NA,NA,NA,NA,gelb,yellow,g,1,NA,NA,NA,2,6,30,g,1,0.6087695999885909,sub-33578638
NA,NA,NA,NA,NA,NA,NA,gelb,yellow,g,1,NA,NA,NA,2,7,31,g,1,0.7319707999704406,sub-33578638
NA,NA,NA,NA,NA,NA,NA,blau,blue,b,1,NA,NA,NA,2,8,32,b,1,0.7048739999881946,sub-33578638
NA,NA,NA,NA,NA,NA,NA,blau,yellow,g,0,NA,NA,NA,2,9,33,g,1,1.4766431000316516,sub-33578638
NA,NA,NA,NA,NA,NA,NA,rot,red,r,1,NA,NA,NA,2,10,34,r,1,0.594583900005091,sub-33578638
NA,NA,NA,NA,NA,NA,NA,blau,blue,b,1,NA,NA,NA,2,11,35,b,1,0.74240959994494915,sub-33578638
NA,NA,NA,NA,NA,NA,NA,rot,yellow,g,0,NA,NA,NA,3,0,36,g,1,1.3101043999777175,sub-33578638
NA,NA,NA,NA,NA,NA,NA,gelb,blue,b,0,NA,NA,NA,3,1,37,b,1,0.958084099984262,sub-33578638
NA,NA,NA,NA,NA,NA,NA,gelb,yellow,g,1,NA,NA,NA,3,2,38,g,1,0.7267618999467231,sub-33578638
NA,NA,NA,NA,NA,NA,NA,blau,blue,b,1,NA,NA,NA,3,3,39,b,1,0.7582514000241645,sub-33578638
NA,NA,NA,NA,NA,NA,NA,rot,red,r,1,NA,NA,NA,3,4,40,r,1,0.5668896000133827,sub-33578638
NA,NA,NA,NA,NA,NA,NA,blau,blue,b,1,NA,NA,NA,3,5,41,b,1,0.7590233000228181,sub-33578638
NA,NA,NA,NA,NA,NA,NA,rot,red,r,1,NA,NA,NA,3,6,42,r,1,1.7236564000486396,sub-33578638
NA,NA,NA,NA,NA,NA,NA,gelb,yellow,g,1,NA,NA,NA,3,7,43,g,1,0.5950482999905944,sub-33578638
NA,NA,NA,NA,NA,NA,NA,rot,blue,b,0,NA,NA,NA,3,8,44,b,1,0.6820602999650873,sub-33578638
NA,NA,NA,NA,NA,NA,NA,gelb,red,r,0,NA,NA,NA,3,9,45,r,1,0.5882888999767601,sub-33578638
NA,NA,NA,NA,NA,NA,NA,blau,red,r,0,NA,NA,NA,3,10,46,b,0,0.6337607000023127,sub-33578638
NA,NA,NA,NA,NA,NA,NA,blau,yellow,g,0,NA,NA,NA,3,11,47,g,1,0.968323800014332,sub-33578638
NA,NA,NA,NA,NA,NA,NA,blau,red,r,0,NA,NA,NA,4,0,48,r,1,0.9408606999786572,sub-33578638
NA,NA,NA,NA,NA,NA,NA,gelb,red,r,0,NA,NA,NA,4,1,49,r,1,1.027403599990066,sub-33578638
NA,NA,NA,NA,NA,NA,NA,rot,red,r,1,NA,NA,NA,4,2,50,r,1,0.5728620999725536,sub-33578638
NA,NA,NA,NA,NA,NA,NA,gelb,yellow,g,1,NA,NA,NA,4,3,51,g,1,0.6232652000035159,sub-33578638
NA,NA,NA,NA,NA,NA,NA,rot,yellow,g,0,NA,NA,NA,4,4,52,g,1,0.655115699977614,sub-33578638
NA,NA,NA,NA,NA,NA,NA,blau,blue,b,1,NA,NA,NA,4,5,53,b,1,0.7715167999849655,sub-33578638
NA,NA,NA,NA,NA,NA,NA,blau,yellow,g,0,NA,NA,NA,4,6,54,g,1,0.7319660999928601,sub-33578638
NA,NA,NA,NA,NA,NA,NA,rot,blue,b,0,NA,NA,NA,4,7,55,b,1,0.763871300034225,sub-33578638
NA,NA,NA,NA,NA,NA,NA,gelb,blue,b,0,NA,NA,NA,4,8,56,b,1,1.1174937999458052,sub-33578638
NA,NA,NA,NA,NA,NA,NA,blau,blue,b,1,NA,NA,NA,4,9,57,b,1,0.743591699982062,sub-33578638
NA,NA,NA,NA,NA,NA,NA,gelb,yellow,g,1,NA,NA,NA,4,10,58,g,1,0.6251781000173651,sub-33578638
NA,NA,NA,NA,NA,NA,NA,rot,red,r,1,NA,NA,NA,4,11,59,r,1,0.5933861999656074,sub-33578638
NA,NA,NA,NA,NA,NA,NA,blau,red,r,0,NA,NA,NA,5,0,60,r,1,0.784533099969849,sub-33578638
NA,NA,NA,NA,NA,NA,NA,gelb,yellow,g,1,NA,NA,NA,5,1,61,g,1,0.8486617000307888,sub-33578638
NA,NA,NA,NA,NA,NA,NA,blau,yellow,g,0,NA,NA,NA,5,2,62,g,1,0.6254620000254363,sub-33578638
NA,NA,NA,NA,NA,NA,NA,rot,blue,b,0,NA,NA,NA,5,3,63,b,1,0.8250418999814428,sub-33578638
NA,NA,NA,NA,NA,NA,NA,gelb,blue,b,0,NA,NA,NA,5,4,64,b,1,0.4651607000268996,sub-33578638
NA,NA,NA,NA,NA,NA,NA,blau,blue,b,1,NA,NA,NA,5,5,65,b,1,0.4693081000004895,sub-33578638
NA,NA,NA,NA,NA,NA,NA,gelb,yellow,g,1,NA,NA,NA,5,6,66,g,1,0.5602255000267178,sub-33578638
NA,NA,NA,NA,NA,NA,NA,rot,red,r,1,NA,NA,NA,5,7,67,r,1,0.5700064999982715,sub-33578638
NA,NA,NA,NA,NA,NA,NA,rot,yellow,g,0,NA,NA,NA,5,8,68,g,1,0.90295489999698475,sub-33578638
NA,NA,NA,NA,NA,NA,NA,rot,red,r,1,NA,NA,NA,5,9,69,r,1,0.8227288000052795,sub-33578638
NA,NA,NA,NA,NA,NA,NA,gelb,red,r,0,NA,NA,NA,5,10,70,r,1,0.9563493999885396,sub-33578638
NA,NA,NA,NA,NA,NA,NA,blau,blue,b,1,NA,NA,NA,5,11,71,b,1,0.6583185999770649,sub-33578638
NA,NA,NA,NA,NA,NA,NA,gelb,yellow,g,1,NA,NA,NA,6,0,72,g,1,0.609299999952782,sub-33578638
NA,NA,NA,NA,NA,NA,NA,rot,yellow,g,0,NA,NA,NA,6,1,73,g,1,0.9215129999793136,sub-33578638
NA,NA,NA,NA,NA,NA,NA,gelb,blue,b,0,NA,NA,NA,6,2,74,b,1,1.0808571999659762,sub-33578638
NA,NA,NA,NA,NA,NA,NA,blau,blue,b,1,NA,NA,NA,6,3,75,b,1,0.7019904000335373,sub-33578638
NA,NA,NA,NA,NA,NA,NA,gelb,red,r,0,NA,NA,NA,6,4,76,r,1,0.7083065999904647,sub-33578638
NA,NA,NA,NA,NA,NA,NA,rot,red,r,1,NA,NA,NA,6,5,77,r,1,0.751585400023032,sub-33578638
NA,NA,NA,NA,NA,NA,NA,blau,blue,b,1,NA,NA,NA,6,6,78,b,1,0.7020840999903157,sub-33578638
NA,NA,NA,NA,NA,NA,NA,rot,blue,b,0,NA,NA,NA,6,7,79,b,1,0.9356296000187284,sub-33578638
NA,NA,NA,NA,NA,NA,NA,blau,yellow,g,0,NA,NA,NA,6,8,80,g,1,0.9727122999611312,sub-33578638
NA,NA,NA,NA,NA,NA,NA,rot,red,r,1,NA,NA,NA,6,9,81,r,1,0.6591455999878235,sub-33578638
NA,NA,NA,NA,NA,NA,NA,gelb,yellow,g,1,NA,NA,NA,6,10,82,g,1,1.1698715999955311,sub-33578638
NA,NA,NA,NA,NA,NA,NA,blau,red,r,0,NA,NA,NA,6,11,83,r,1,1.330285600037314,sub-33578638
NA,NA,NA,NA,NA,NA,NA,gelb,yellow,g,1,NA,NA,NA,7,0,84,g,1,1.031229300017003,sub-33578638
NA,NA,NA,NA,NA,NA,NA,rot,blue,b,0,NA,NA,NA,7,1,85,b,1,0.8564666999736801,sub-33578638
NA,NA,NA,NA,NA,NA,NA,rot,red,r,1,NA,NA,NA,7,2,86,r,1,0.6119050999986939,sub-33578638
NA,NA,NA,NA,NA,NA,NA,gelb,yellow,g,1,NA,NA,NA,7,3,87,g,1,0.5994264999753796,sub-33578638
NA,NA,NA,NA,NA,NA,NA,gelb,blue,b,0,NA,NA,NA,7,4,88,b,1,0.5597146999789402,sub-33578638
NA,NA,NA,NA,NA,NA,NA,rot,yellow,g,0,NA,NA,NA,7,5,89,g,1,0.9458636000053956,sub-33578638
NA,NA,NA,NA,NA,NA,NA,blau,blue,b,1,NA,NA,NA,7,6,90,b,1,0.5603229000116698,sub-33578638
NA,NA,NA,NA,NA,NA,NA,blau,blue,b,1,NA,NA,NA,7,7,91,b,1,0.6380283000180498,sub-33578638
NA,NA,NA,NA,NA,NA,NA,blau,yellow,g,0,NA,NA,NA,7,8,92,g,1,1.5947068000095896,sub-33578638
NA,NA,NA,NA,NA,NA,NA,rot,red,r,1,NA,NA,NA,7,9,93,r,1,0.6272207999718376,sub-33578638
NA,NA,NA,NA,NA,NA,NA,blau,red,r,0,NA,NA,NA,7,10,94,r,1,0.802322399977129,sub-33578638
NA,NA,NA,NA,NA,NA,NA,gelb,red,r,0,NA,NA,NA,7,11,95,r,1,0.44627549999859184,sub-33578638
NA,NA,NA,NA,NA,NA,NA,gelb,yellow,g,1,NA,NA,NA,8,0,96,g,1,0.6330137000186369,sub-33578638
NA,NA,NA,NA,NA,NA,NA,blau,blue,b,1,NA,NA,NA,8,1,97,b,1,0.6716762999421917,sub-33578638
NA,NA,NA,NA,NA,NA,NA,gelb,yellow,g,1,NA,NA,NA,8,2,98,g,1,0.6053458999958821,sub-33578638
NA,NA,NA,NA,NA,NA,NA,gelb,blue,b,0,NA,NA,NA,8,3,99,b,1,1.0903099999995902,sub-33578638
NA,NA,NA,NA,NA,NA,NA,blau,blue,b,1,NA,NA,NA,8,4,100,b,1,0.445542800007388,sub-33578638
NA,NA,NA,NA,NA,NA,NA,blau,red,r,0,NA,NA,NA,8,5,101,r,1,0.5937291000154801,sub-33578638
NA,NA,NA,NA,NA,NA,NA,rot,blue,b,0,NA,NA,NA,8,6,102,b,1,0.8291783999884501,sub-33578638
NA,NA,NA,NA,NA,NA,NA,blau,yellow,g,0,NA,NA,NA,8,7,103,g,1,0.6761296999757178,sub-33578638
NA,NA,NA,NA,NA,NA,NA,rot,red,r,1,NA,NA,NA,8,8,104,r,1,0.6691540000028908,sub-33578638
NA,NA,NA,NA,NA,NA,NA,rot,yellow,g,0,NA,NA,NA,8,9,105,g,1,0.8445587999885902,sub-33578638
NA,NA,NA,NA,NA,NA,NA,rot,red,r,1,NA,NA,NA,8,10,106,r,1,0.6661161999800242,sub-33578638
NA,NA,NA,NA,NA,NA,NA,gelb,red,r,0,NA,NA,NA,8,11,107,r,1,0.8686842999886721,sub-33578638
NA,NA,NA,NA,NA,NA,NA,rot,yellow,g,0,NA,NA,NA,9,0,108,g,1,0.694768599991221,sub-33578638
NA,NA,NA,NA,NA,NA,NA,blau,blue,b,1,NA,NA,NA,9,1,109,b,1,0.5780231000389904,sub-33578638
NA,NA,NA,NA,NA,NA,NA,rot,red,r,1,NA,NA,NA,9,2,110,r,1,0.6282372000277974,sub-33578638
NA,NA,NA,NA,NA,NA,NA,rot,blue,b,0,NA,NA,NA,9,3,111,b,1,0.8433856999618001,sub-33578638
NA,NA,NA,NA,NA,NA,NA,gelb,blue,b,0,NA,NA,NA,9,4,112,b,1,0.7057378000463359,sub-33578638
NA,NA,NA,NA,NA,NA,NA,gelb,yellow,g,1,NA,NA,NA,9,5,113,g,1,0.8190036999876611,sub-33578638
NA,NA,NA,NA,NA,NA,NA,blau,blue,b,1,NA,NA,NA,9,6,114,b,1,0.423906399984844,sub-33578638
NA,NA,NA,NA,NA,NA,NA,rot,red,r,1,NA,NA,NA,9,7,115,r,1,0.6441362000186928,sub-33578638
NA,NA,NA,NA,NA,NA,NA,gelb,red,r,0,NA,NA,NA,9,8,116,r,1,0.7939109000144526,sub-33578638
NA,NA,NA,NA,NA,NA,NA,gelb,yellow,g,1,NA,NA,NA,9,9,117,g,1,0.4561930000199936,sub-33578638
NA,NA,NA,NA,NA,NA,NA,blau,yellow,g,0,NA,NA,NA,9,10,118,g,1,0.7126925999764353,sub-33578638
NA,NA,NA,NA,NA,NA,NA,blau,red,r,0,NA,NA,NA,9,11,119,r,1,0.9380587000050582,sub-33578638
NA,NA,NA,NA,NA,NA,NA,NA,NA,NA,NA,NA,NA,NA,NA,NA,NA,NA,NA,NA,sub-33578638
