wordCTK,colorCTK,corrAnsCTK,congruentCTK,wordPractice,colorPractice,congruentPractice,word,color,corrAns,congruent,trials_practice.thisRepN,trials_practice.thisTrialN,trials_practice.thisN,trials_test.thisRepN,trials_test.thisTrialN,trials_test.thisN,keyResp_test_run.keys,keyResp_test_run.corr,keyResp_test_run.rt,participant
NA,NA,NA,NA,NA,NA,NA,NA,NA,NA,NA,NA,NA,NA,NA,NA,NA,NA,NA,NA,sub-84123192
NA,NA,NA,NA,NA,NA,NA,NA,NA,NA,NA,NA,NA,NA,NA,NA,NA,NA,NA,NA,sub-84123192
test,red,r,1,NA,NA,NA,NA,NA,NA,NA,NA,NA,NA,NA,NA,NA,NA,NA,NA,sub-84123192
test,blue,b,1,NA,NA,NA,NA,NA,NA,NA,NA,NA,NA,NA,NA,NA,NA,NA,NA,sub-84123192
test,yellow,g,1,NA,NA,NA,NA,NA,NA,NA,NA,NA,NA,NA,NA,NA,NA,NA,NA,sub-84123192
test,yellow,g,1,NA,NA,NA,NA,NA,NA,NA,NA,NA,NA,NA,NA,NA,NA,NA,NA,sub-84123192
test,red,r,1,NA,NA,NA,NA,NA,NA,NA,NA,NA,NA,NA,NA,NA,NA,NA,NA,sub-84123192
test,blue,b,1,NA,NA,NA,NA,NA,NA,NA,NA,NA,NA,NA,NA,NA,NA,NA,NA,sub-84123192
test,red,r,1,NA,NA,NA,NA,NA,NA,NA,NA,NA,NA,NA,NA,NA,NA,NA,NA,sub-84123192
test,yellow,g,1,NA,NA,NA,NA,NA,NA,NA,NA,NA,NA,NA,NA,NA,NA,NA,NA,sub-84123192
test,blue,b,1,NA,NA,NA,NA,NA,NA,NA,NA,NA,NA,NA,NA,NA,NA,NA,NA,sub-84123192
test,blue,b,1,NA,NA,NA,NA,NA,NA,NA,NA,NA,NA,NA,NA,NA,NA,NA,NA,sub-84123192
test,red,r,1,NA,NA,NA,NA,NA,NA,NA,NA,NA,NA,NA,NA,NA,NA,NA,NA,sub-84123192
test,yellow,g,1,NA,NA,NA,NA,NA,NA,NA,NA,NA,NA,NA,NA,NA,NA,NA,NA,sub-84123192
NA,NA,NA,NA,NA,NA,NA,NA,NA,NA,NA,NA,NA,NA,NA,NA,NA,NA,NA,NA,sub-84123192
NA,NA,NA,NA,gelb,blue,0,NA,NA,NA,NA,0,0,0,NA,NA,NA,NA,NA,NA,sub-84123192
NA,NA,NA,NA,rot,red,1,NA,NA,NA,NA,0,1,1,NA,NA,NA,NA,NA,NA,sub-84123192
NA,NA,NA,NA,blau,blue,1,NA,NA,NA,NA,0,2,2,NA,NA,NA,NA,NA,NA,sub-84123192
NA,NA,NA,NA,rot,red,1,NA,NA,NA,NA,0,3,3,NA,NA,NA,NA,NA,NA,sub-84123192
NA,NA,NA,NA,rot,blue,0,NA,NA,NA,NA,0,4,4,NA,NA,NA,NA,NA,NA,sub-84123192
NA,NA,NA,NA,gelb,red,0,NA,NA,NA,NA,0,5,5,NA,NA,NA,NA,NA,NA,sub-84123192
NA,NA,NA,NA,rot,yellow,0,NA,NA,NA,NA,0,6,6,NA,NA,NA,NA,NA,NA,sub-84123192
NA,NA,NA,NA,blau,yellow,0,NA,NA,NA,NA,0,7,7,NA,NA,NA,NA,NA,NA,sub-84123192
NA,NA,NA,NA,gelb,yellow,1,NA,NA,NA,NA,0,8,8,NA,NA,NA,NA,NA,NA,sub-84123192
NA,NA,NA,NA,blau,red,0,NA,NA,NA,NA,0,9,9,NA,NA,NA,NA,NA,NA,sub-84123192
NA,NA,NA,NA,gelb,yellow,1,NA,NA,NA,NA,0,10,10,NA,NA,NA,NA,NA,NA,sub-84123192
NA,NA,NA,NA,blau,blue,1,NA,NA,NA,NA,0,11,11,NA,NA,NA,NA,NA,NA,sub-84123192
NA,NA,NA,NA,blau,blue,1,NA,NA,NA,NA,1,0,12,NA,NA,NA,NA,NA,NA,sub-84123192
NA,NA,NA,NA,blau,yellow,0,NA,NA,NA,NA,1,1,13,NA,NA,NA,NA,NA,NA,sub-84123192
NA,NA,NA,NA,rot,yellow,0,NA,NA,NA,NA,1,2,14,NA,NA,NA,NA,NA,NA,sub-84123192
NA,NA,NA,NA,gelb,yellow,1,NA,NA,NA,NA,1,3,15,NA,NA,NA,NA,NA,NA,sub-84123192
NA,NA,NA,NA,gelb,red,0,NA,NA,NA,NA,1,4,16,NA,NA,NA,NA,NA,NA,sub-84123192
NA,NA,NA,NA,rot,red,1,NA,NA,NA,NA,1,5,17,NA,NA,NA,NA,NA,NA,sub-84123192
NA,NA,NA,NA,gelb,blue,0,NA,NA,NA,NA,1,6,18,NA,NA,NA,NA,NA,NA,sub-84123192
NA,NA,NA,NA,blau,red,0,NA,NA,NA,NA,1,7,19,NA,NA,NA,NA,NA,NA,sub-84123192
NA,NA,NA,NA,blau,blue,1,NA,NA,NA,NA,1,8,20,NA,NA,NA,NA,NA,NA,sub-84123192
NA,NA,NA,NA,gelb,yellow,1,NA,NA,NA,NA,1,9,21,NA,NA,NA,NA,NA,NA,sub-84123192
NA,NA,NA,NA,rot,red,1,NA,NA,NA,NA,1,10,22,NA,NA,NA,NA,NA,NA,sub-84123192
NA,NA,NA,NA,rot,blue,0,NA,NA,NA,NA,1,11,23,NA,NA,NA,NA,NA,NA,sub-84123192
NA,NA,NA,NA,NA,NA,NA,NA,NA,NA,NA,NA,NA,NA,NA,NA,NA,NA,NA,NA,sub-84123192
NA,NA,NA,NA,NA,NA,NA,rot,red,r,1,NA,NA,NA,0,0,0,r,1,1.4830587010001182,sub-84123192
NA,NA,NA,NA,NA,NA,NA,rot,red,r,1,NA,NA,NA,0,1,1,r,1,0.5563605229981476,sub-84123192
NA,NA,NA,NA,NA,NA,NA,gelb,blue,b,0,NA,NA,NA,0,2,2,b,1,1.0934222670002782,sub-84123192
NA,NA,NA,NA,NA,NA,NA,gelb,red,r,0,NA,NA,NA,0,3,3,g,0,0.6766230890025327,sub-84123192
NA,NA,NA,NA,NA,NA,NA,blau,blue,b,1,NA,NA,NA,0,4,4,b,1,0.5187786110000161,sub-84123192
NA,NA,NA,NA,NA,NA,NA,blau,blue,b,1,NA,NA,NA,0,5,5,b,1,0.8843377650009643,sub-84123192
NA,NA,NA,NA,NA,NA,NA,rot,blue,b,0,NA,NA,NA,0,6,6,b,1,0.6903287470013311,sub-84123192
NA,NA,NA,NA,NA,NA,NA,rot,yellow,g,0,NA,NA,NA,0,7,7,g,1,0.6651480660002562,sub-84123192
NA,NA,NA,NA,NA,NA,NA,gelb,yellow,g,1,NA,NA,NA,0,8,8,g,1,0.5813265470023907,sub-84123192
NA,NA,NA,NA,NA,NA,NA,blau,yellow,g,0,NA,NA,NA,0,9,9,g,1,1.4880012899993744,sub-84123192
NA,NA,NA,NA,NA,NA,NA,gelb,yellow,g,1,NA,NA,NA,0,10,10,g,1,0.5777346229988325,sub-84123192
NA,NA,NA,NA,NA,NA,NA,blau,red,r,0,NA,NA,NA,0,11,11,r,1,0.5110335980025411,sub-84123192
NA,NA,NA,NA,NA,NA,NA,blau,yellow,g,0,NA,NA,NA,1,0,12,g,1,0.6229875140015793,sub-84123192
NA,NA,NA,NA,NA,NA,NA,gelb,yellow,g,1,NA,NA,NA,1,1,13,g,1,0.5109816969998064,sub-84123192
NA,NA,NA,NA,NA,NA,NA,gelb,yellow,g,1,NA,NA,NA,1,2,14,g,1,0.6752813760031131,sub-84123192
NA,NA,NA,NA,NA,NA,NA,rot,red,r,1,NA,NA,NA,1,3,15,r,1,0.7198468469978252,sub-84123192
NA,NA,NA,NA,NA,NA,NA,blau,red,r,0,NA,NA,NA,1,4,16,r,1,1.1244028910005,sub-84123192
NA,NA,NA,NA,NA,NA,NA,blau,blue,b,1,NA,NA,NA,1,5,17,b,1,0.7714759880000202,sub-84123192
NA,NA,NA,NA,NA,NA,NA,blau,blue,b,1,NA,NA,NA,1,6,18,b,1,1.3345728880012755,sub-84123192
NA,NA,NA,NA,NA,NA,NA,gelb,red,r,0,NA,NA,NA,1,7,19,r,1,0.9610961309990672,sub-84123192
NA,NA,NA,NA,NA,NA,NA,rot,blue,b,0,NA,NA,NA,1,8,20,b,1,0.5655790759992669,sub-84123192
NA,NA,NA,NA,NA,NA,NA,rot,red,r,1,NA,NA,NA,1,9,21,r,1,1.198825293999107,sub-84123192
NA,NA,NA,NA,NA,NA,NA,gelb,blue,b,0,NA,NA,NA,1,10,22,b,1,0.7296639510022942,sub-84123192
NA,NA,NA,NA,NA,NA,NA,rot,yellow,g,0,NA,NA,NA,1,11,23,g,1,1.59335188499972,sub-84123192
NA,NA,NA,NA,NA,NA,NA,blau,blue,b,1,NA,NA,NA,2,0,24,b,1,1.5589668300017363,sub-84123192
NA,NA,NA,NA,NA,NA,NA,gelb,red,r,0,NA,NA,NA,2,1,25,r,1,0.5792717639997136,sub-84123192
NA,NA,NA,NA,NA,NA,NA,rot,blue,b,0,NA,NA,NA,2,2,26,b,1,0.6688737450022018,sub-84123192
NA,NA,NA,NA,NA,NA,NA,rot,yellow,g,0,NA,NA,NA,2,3,27,g,1,1.011350606000633,sub-84123192
NA,NA,NA,NA,NA,NA,NA,gelb,yellow,g,1,NA,NA,NA,2,4,28,g,1,0.7944885450015136,sub-84123192
NA,NA,NA,NA,NA,NA,NA,blau,blue,b,1,NA,NA,NA,2,5,29,b,1,0.7830154760013102,sub-84123192
NA,NA,NA,NA,NA,NA,NA,blau,red,r,0,NA,NA,NA,2,6,30,r,1,0.7386890609996044,sub-84123192
NA,NA,NA,NA,NA,NA,NA,blau,yellow,g,0,NA,NA,NA,2,7,31,g,1,0.7233747099999164,sub-84123192
NA,NA,NA,NA,NA,NA,NA,rot,red,r,1,NA,NA,NA,2,8,32,r,1,1.1703875820021494,sub-84123192
NA,NA,NA,NA,NA,NA,NA,rot,red,r,1,NA,NA,NA,2,9,33,r,1,0.8126970990015252,sub-84123192
NA,NA,NA,NA,NA,NA,NA,gelb,yellow,g,1,NA,NA,NA,2,10,34,g,1,0.7503620940005931,sub-84123192
NA,NA,NA,NA,NA,NA,NA,gelb,blue,b,0,NA,NA,NA,2,11,35,b,1,0.7764749070011021,sub-84123192
NA,NA,NA,NA,NA,NA,NA,blau,yellow,g,0,NA,NA,NA,3,0,36,g,1,0.7950496140001633,sub-84123192
NA,NA,NA,NA,NA,NA,NA,blau,blue,b,1,NA,NA,NA,3,1,37,b,1,0.4257691450002312,sub-84123192
NA,NA,NA,NA,NA,NA,NA,gelb,yellow,g,1,NA,NA,NA,3,2,38,g,1,0.8155346040002769,sub-84123192
NA,NA,NA,NA,NA,NA,NA,blau,blue,b,1,NA,NA,NA,3,3,39,b,1,0.5895808749992284,sub-84123192
NA,NA,NA,NA,NA,NA,NA,gelb,yellow,g,1,NA,NA,NA,3,4,40,g,1,0.7479925690022355,sub-84123192
NA,NA,NA,NA,NA,NA,NA,rot,red,r,1,NA,NA,NA,3,5,41,r,1,1.5099669359988184,sub-84123192
NA,NA,NA,NA,NA,NA,NA,rot,blue,b,0,NA,NA,NA,3,6,42,b,1,0.9338587780002854,sub-84123192
NA,NA,NA,NA,NA,NA,NA,rot,red,r,1,NA,NA,NA,3,7,43,r,1,3.978321094000421,sub-84123192
NA,NA,NA,NA,NA,NA,NA,rot,yellow,g,0,NA,NA,NA,3,8,44,g,1,1.1162415580001834,sub-84123192
NA,NA,NA,NA,NA,NA,NA,gelb,blue,b,0,NA,NA,NA,3,9,45,b,1,0.7910670559977007,sub-84123192
NA,NA,NA,NA,NA,NA,NA,gelb,red,r,0,NA,NA,NA,3,10,46,r,1,0.9650023599970154,sub-84123192
NA,NA,NA,NA,NA,NA,NA,blau,red,r,0,NA,NA,NA,3,11,47,r,1,0.6392359630008286,sub-84123192
NA,NA,NA,NA,NA,NA,NA,rot,red,r,1,NA,NA,NA,4,0,48,r,1,0.9012097339982574,sub-84123192
NA,NA,NA,NA,NA,NA,NA,blau,blue,b,1,NA,NA,NA,4,1,49,b,1,0.5480104560010659,sub-84123192
NA,NA,NA,NA,NA,NA,NA,rot,yellow,g,0,NA,NA,NA,4,2,50,g,1,0.9054275050002616,sub-84123192
NA,NA,NA,NA,NA,NA,NA,blau,blue,b,1,NA,NA,NA,4,3,51,b,1,0.598859835001349,sub-84123192
NA,NA,NA,NA,NA,NA,NA,gelb,yellow,g,1,NA,NA,NA,4,4,52,g,1,0.6302041779999854,sub-84123192
NA,NA,NA,NA,NA,NA,NA,rot,blue,b,0,NA,NA,NA,4,5,53,b,1,0.7700611650034261,sub-84123192
NA,NA,NA,NA,NA,NA,NA,gelb,red,r,0,NA,NA,NA,4,6,54,r,1,0.7027592089980317,sub-84123192
NA,NA,NA,NA,NA,NA,NA,gelb,yellow,g,1,NA,NA,NA,4,7,55,g,1,0.6846615769973141,sub-84123192
NA,NA,NA,NA,NA,NA,NA,rot,red,r,1,NA,NA,NA,4,8,56,r,1,1.6512805859965738,sub-84123192
NA,NA,NA,NA,NA,NA,NA,gelb,blue,b,0,NA,NA,NA,4,9,57,b,1,0.8344131480007491,sub-84123192
NA,NA,NA,NA,NA,NA,NA,blau,red,r,0,NA,NA,NA,4,10,58,r,1,2.3279663790017366,sub-84123192
NA,NA,NA,NA,NA,NA,NA,blau,yellow,g,0,NA,NA,NA,4,11,59,g,1,0.6488677310007915,sub-84123192
NA,NA,NA,NA,NA,NA,NA,blau,blue,b,1,NA,NA,NA,5,0,60,b,1,0.7255263490005746,sub-84123192
NA,NA,NA,NA,NA,NA,NA,gelb,yellow,g,1,NA,NA,NA,5,1,61,g,1,0.7495235550013604,sub-84123192
NA,NA,NA,NA,NA,NA,NA,rot,red,r,1,NA,NA,NA,5,2,62,r,1,1.3664220350001417,sub-84123192
NA,NA,NA,NA,NA,NA,NA,rot,red,r,1,NA,NA,NA,5,3,63,r,1,0.6677087469979597,sub-84123192
NA,NA,NA,NA,NA,NA,NA,gelb,blue,b,0,NA,NA,NA,5,4,64,b,1,0.6720721400015464,sub-84123192
NA,NA,NA,NA,NA,NA,NA,blau,yellow,g,0,NA,NA,NA,5,5,65,g,1,0.6169202189994394,sub-84123192
NA,NA,NA,NA,NA,NA,NA,rot,blue,b,0,NA,NA,NA,5,6,66,b,1,1.6778918580021127,sub-84123192
NA,NA,NA,NA,NA,NA,NA,blau,blue,b,1,NA,NA,NA,5,7,67,b,1,0.6251120209999499,sub-84123192
NA,NA,NA,NA,NA,NA,NA,rot,yellow,g,0,NA,NA,NA,5,8,68,g,1,0.6797101299998758,sub-84123192
NA,NA,NA,NA,NA,NA,NA,gelb,yellow,g,1,NA,NA,NA,5,9,69,g,1,0.7522680040019623,sub-84123192
NA,NA,NA,NA,NA,NA,NA,blau,red,r,0,NA,NA,NA,5,10,70,r,1,1.933707375002996,sub-84123192
NA,NA,NA,NA,NA,NA,NA,gelb,red,r,0,NA,NA,NA,5,11,71,r,1,1.030792831999861,sub-84123192
NA,NA,NA,NA,NA,NA,NA,blau,red,r,0,NA,NA,NA,6,0,72,r,1,0.5158416509984818,sub-84123192
NA,NA,NA,NA,NA,NA,NA,rot,red,r,1,NA,NA,NA,6,1,73,r,1,0.715094882001722,sub-84123192
NA,NA,NA,NA,NA,NA,NA,gelb,yellow,g,1,NA,NA,NA,6,2,74,g,1,0.5762602219983819,sub-84123192
NA,NA,NA,NA,NA,NA,NA,gelb,yellow,g,1,NA,NA,NA,6,3,75,g,1,0.703208402999735,sub-84123192
NA,NA,NA,NA,NA,NA,NA,blau,blue,b,1,NA,NA,NA,6,4,76,b,1,0.6550376359991787,sub-84123192
NA,NA,NA,NA,NA,NA,NA,blau,yellow,g,0,NA,NA,NA,6,5,77,g,1,0.8525933450000593,sub-84123192
NA,NA,NA,NA,NA,NA,NA,gelb,blue,b,0,NA,NA,NA,6,6,78,b,1,0.7566082429984817,sub-84123192
NA,NA,NA,NA,NA,NA,NA,rot,blue,b,0,NA,NA,NA,6,7,79,b,1,0.6796707539979252,sub-84123192
NA,NA,NA,NA,NA,NA,NA,rot,yellow,g,0,NA,NA,NA,6,8,80,g,1,0.7369212109988439,sub-84123192
NA,NA,NA,NA,NA,NA,NA,gelb,red,r,0,NA,NA,NA,6,9,81,r,1,0.7138027190012508,sub-84123192
NA,NA,NA,NA,NA,NA,NA,rot,red,r,1,NA,NA,NA,6,10,82,r,1,0.5282301840015862,sub-84123192
NA,NA,NA,NA,NA,NA,NA,blau,blue,b,1,NA,NA,NA,6,11,83,b,1,0.6202595389986527,sub-84123192
NA,NA,NA,NA,NA,NA,NA,gelb,blue,b,0,NA,NA,NA,7,0,84,b,1,0.5101636449981015,sub-84123192
NA,NA,NA,NA,NA,NA,NA,gelb,red,r,0,NA,NA,NA,7,1,85,r,1,1.5295792249999067,sub-84123192
NA,NA,NA,NA,NA,NA,NA,gelb,yellow,g,1,NA,NA,NA,7,2,86,g,1,0.6164255369985767,sub-84123192
NA,NA,NA,NA,NA,NA,NA,blau,yellow,g,0,NA,NA,NA,7,3,87,g,1,0.5773619140018127,sub-84123192
NA,NA,NA,NA,NA,NA,NA,blau,blue,b,1,NA,NA,NA,7,4,88,b,1,0.6380483130014909,sub-84123192
NA,NA,NA,NA,NA,NA,NA,rot,red,r,1,NA,NA,NA,7,5,89,r,1,0.637872104998678,sub-84123192
NA,NA,NA,NA,NA,NA,NA,gelb,yellow,g,1,NA,NA,NA,7,6,90,g,1,2.065150509002706,sub-84123192
NA,NA,NA,NA,NA,NA,NA,blau,red,r,0,NA,NA,NA,7,7,91,r,1,0.6268261710029037,sub-84123192
NA,NA,NA,NA,NA,NA,NA,rot,red,r,1,NA,NA,NA,7,8,92,r,1,0.6825003789999755,sub-84123192
NA,NA,NA,NA,NA,NA,NA,rot,yellow,g,0,NA,NA,NA,7,9,93,g,1,0.6888935490023869,sub-84123192
NA,NA,NA,NA,NA,NA,NA,blau,blue,b,1,NA,NA,NA,7,10,94,b,1,1.0492188329990313,sub-84123192
NA,NA,NA,NA,NA,NA,NA,rot,blue,b,0,NA,NA,NA,7,11,95,b,1,0.7107669450015237,sub-84123192
NA,NA,NA,NA,NA,NA,NA,rot,red,r,1,NA,NA,NA,8,0,96,r,1,0.5600121409988787,sub-84123192
NA,NA,NA,NA,NA,NA,NA,rot,red,r,1,NA,NA,NA,8,1,97,r,1,0.43892647399843554,sub-84123192
NA,NA,NA,NA,NA,NA,NA,gelb,red,r,0,NA,NA,NA,8,2,98,r,1,0.6622491660018568,sub-84123192
NA,NA,NA,NA,NA,NA,NA,rot,yellow,g,0,NA,NA,NA,8,3,99,g,1,0.710228529998858,sub-84123192
NA,NA,NA,NA,NA,NA,NA,blau,blue,b,1,NA,NA,NA,8,4,100,b,1,0.3670172489983088,sub-84123192
NA,NA,NA,NA,NA,NA,NA,blau,yellow,g,0,NA,NA,NA,8,5,101,g,1,0.5724519409995992,sub-84123192
NA,NA,NA,NA,NA,NA,NA,gelb,yellow,g,1,NA,NA,NA,8,6,102,g,1,0.4722675150005671,sub-84123192
NA,NA,NA,NA,NA,NA,NA,gelb,yellow,g,1,NA,NA,NA,8,7,103,g,1,0.5166721540008439,sub-84123192
NA,NA,NA,NA,NA,NA,NA,blau,red,r,0,NA,NA,NA,8,8,104,r,1,0.45635867300006794,sub-84123192
NA,NA,NA,NA,NA,NA,NA,rot,blue,b,0,NA,NA,NA,8,9,105,b,1,0.8295380320014374,sub-84123192
NA,NA,NA,NA,NA,NA,NA,blau,blue,b,1,NA,NA,NA,8,10,106,b,1,0.4985028869996313,sub-84123192
NA,NA,NA,NA,NA,NA,NA,gelb,blue,b,0,NA,NA,NA,8,11,107,b,1,0.6974808489976567,sub-84123192
NA,NA,NA,NA,NA,NA,NA,gelb,yellow,g,1,NA,NA,NA,9,0,108,g,1,0.37605397700099275,sub-84123192
NA,NA,NA,NA,NA,NA,NA,rot,yellow,g,0,NA,NA,NA,9,1,109,g,1,0.42019528800301487,sub-84123192
NA,NA,NA,NA,NA,NA,NA,gelb,yellow,g,1,NA,NA,NA,9,2,110,g,1,0.4821229549997952,sub-84123192
NA,NA,NA,NA,NA,NA,NA,blau,blue,b,1,NA,NA,NA,9,3,111,b,1,0.55736665400036145,sub-84123192
NA,NA,NA,NA,NA,NA,NA,rot,blue,b,0,NA,NA,NA,9,4,112,b,1,0.5389321910006402,sub-84123192
NA,NA,NA,NA,NA,NA,NA,gelb,blue,b,0,NA,NA,NA,9,5,113,b,1,0.42011559100137674,sub-84123192
NA,NA,NA,NA,NA,NA,NA,blau,red,r,0,NA,NA,NA,9,6,114,r,1,0.6538540829969861,sub-84123192
NA,NA,NA,NA,NA,NA,NA,rot,red,r,1,NA,NA,NA,9,7,115,r,1,0.43389543800003594,sub-84123192
NA,NA,NA,NA,NA,NA,NA,rot,red,r,1,NA,NA,NA,9,8,116,r,1,0.47259953300090274,sub-84123192
NA,NA,NA,NA,NA,NA,NA,blau,blue,b,1,NA,NA,NA,9,9,117,b,1,0.5498058999983186,sub-84123192
NA,NA,NA,NA,NA,NA,NA,blau,yellow,g,0,NA,NA,NA,9,10,118,g,1,0.8817477209995559,sub-84123192
NA,NA,NA,NA,NA,NA,NA,gelb,red,r,0,NA,NA,NA,9,11,119,r,1,2.4714374440009124,sub-84123192
NA,NA,NA,NA,NA,NA,NA,NA,NA,NA,NA,NA,NA,NA,NA,NA,NA,NA,NA,NA,sub-84123192
