wordCTK,colorCTK,corrAnsCTK,congruentCTK,wordPractice,colorPractice,congruentPractice,word,color,corrAns,congruent,trials_practice.thisRepN,trials_practice.thisTrialN,trials_practice.thisN,trials_test.thisRepN,trials_test.thisTrialN,trials_test.thisN,keyResp_test_run.keys,keyResp_test_run.corr,keyResp_test_run.rt,participant
NA,NA,NA,NA,NA,NA,NA,NA,NA,NA,NA,NA,NA,NA,NA,NA,NA,NA,NA,NA,sub-37000825
NA,NA,NA,NA,NA,NA,NA,NA,NA,NA,NA,NA,NA,NA,NA,NA,NA,NA,NA,NA,sub-37000825
test,red,r,1,NA,NA,NA,NA,NA,NA,NA,NA,NA,NA,NA,NA,NA,NA,NA,NA,sub-37000825
test,blue,b,1,NA,NA,NA,NA,NA,NA,NA,NA,NA,NA,NA,NA,NA,NA,NA,NA,sub-37000825
test,yellow,g,1,NA,NA,NA,NA,NA,NA,NA,NA,NA,NA,NA,NA,NA,NA,NA,NA,sub-37000825
test,red,r,1,NA,NA,NA,NA,NA,NA,NA,NA,NA,NA,NA,NA,NA,NA,NA,NA,sub-37000825
test,blue,b,1,NA,NA,NA,NA,NA,NA,NA,NA,NA,NA,NA,NA,NA,NA,NA,NA,sub-37000825
test,yellow,g,1,NA,NA,NA,NA,NA,NA,NA,NA,NA,NA,NA,NA,NA,NA,NA,NA,sub-37000825
test,blue,b,1,NA,NA,NA,NA,NA,NA,NA,NA,NA,NA,NA,NA,NA,NA,NA,NA,sub-37000825
test,red,r,1,NA,NA,NA,NA,NA,NA,NA,NA,NA,NA,NA,NA,NA,NA,NA,NA,sub-37000825
test,yellow,g,1,NA,NA,NA,NA,NA,NA,NA,NA,NA,NA,NA,NA,NA,NA,NA,NA,sub-37000825
test,blue,b,1,NA,NA,NA,NA,NA,NA,NA,NA,NA,NA,NA,NA,NA,NA,NA,NA,sub-37000825
test,yellow,g,1,NA,NA,NA,NA,NA,NA,NA,NA,NA,NA,NA,NA,NA,NA,NA,NA,sub-37000825
test,red,r,1,NA,NA,NA,NA,NA,NA,NA,NA,NA,NA,NA,NA,NA,NA,NA,NA,sub-37000825
NA,NA,NA,NA,NA,NA,NA,NA,NA,NA,NA,NA,NA,NA,NA,NA,NA,NA,NA,NA,sub-37000825
NA,NA,NA,NA,blau,red,0,NA,NA,NA,NA,0,0,0,NA,NA,NA,NA,NA,NA,sub-37000825
NA,NA,NA,NA,gelb,red,0,NA,NA,NA,NA,0,1,1,NA,NA,NA,NA,NA,NA,sub-37000825
NA,NA,NA,NA,gelb,yellow,1,NA,NA,NA,NA,0,2,2,NA,NA,NA,NA,NA,NA,sub-37000825
NA,NA,NA,NA,rot,yellow,0,NA,NA,NA,NA,0,3,3,NA,NA,NA,NA,NA,NA,sub-37000825
NA,NA,NA,NA,rot,blue,0,NA,NA,NA,NA,0,4,4,NA,NA,NA,NA,NA,NA,sub-37000825
NA,NA,NA,NA,rot,red,1,NA,NA,NA,NA,0,5,5,NA,NA,NA,NA,NA,NA,sub-37000825
NA,NA,NA,NA,gelb,blue,0,NA,NA,NA,NA,0,6,6,NA,NA,NA,NA,NA,NA,sub-37000825
NA,NA,NA,NA,blau,blue,1,NA,NA,NA,NA,0,7,7,NA,NA,NA,NA,NA,NA,sub-37000825
NA,NA,NA,NA,blau,yellow,0,NA,NA,NA,NA,0,8,8,NA,NA,NA,NA,NA,NA,sub-37000825
NA,NA,NA,NA,rot,red,1,NA,NA,NA,NA,0,9,9,NA,NA,NA,NA,NA,NA,sub-37000825
NA,NA,NA,NA,gelb,yellow,1,NA,NA,NA,NA,0,10,10,NA,NA,NA,NA,NA,NA,sub-37000825
NA,NA,NA,NA,blau,blue,1,NA,NA,NA,NA,0,11,11,NA,NA,NA,NA,NA,NA,sub-37000825
NA,NA,NA,NA,rot,red,1,NA,NA,NA,NA,1,0,12,NA,NA,NA,NA,NA,NA,sub-37000825
NA,NA,NA,NA,blau,blue,1,NA,NA,NA,NA,1,1,13,NA,NA,NA,NA,NA,NA,sub-37000825
NA,NA,NA,NA,rot,yellow,0,NA,NA,NA,NA,1,2,14,NA,NA,NA,NA,NA,NA,sub-37000825
NA,NA,NA,NA,gelb,yellow,1,NA,NA,NA,NA,1,3,15,NA,NA,NA,NA,NA,NA,sub-37000825
NA,NA,NA,NA,gelb,red,0,NA,NA,NA,NA,1,4,16,NA,NA,NA,NA,NA,NA,sub-37000825
NA,NA,NA,NA,blau,blue,1,NA,NA,NA,NA,1,5,17,NA,NA,NA,NA,NA,NA,sub-37000825
NA,NA,NA,NA,blau,red,0,NA,NA,NA,NA,1,6,18,NA,NA,NA,NA,NA,NA,sub-37000825
NA,NA,NA,NA,rot,red,1,NA,NA,NA,NA,1,7,19,NA,NA,NA,NA,NA,NA,sub-37000825
NA,NA,NA,NA,gelb,blue,0,NA,NA,NA,NA,1,8,20,NA,NA,NA,NA,NA,NA,sub-37000825
NA,NA,NA,NA,blau,yellow,0,NA,NA,NA,NA,1,9,21,NA,NA,NA,NA,NA,NA,sub-37000825
NA,NA,NA,NA,rot,blue,0,NA,NA,NA,NA,1,10,22,NA,NA,NA,NA,NA,NA,sub-37000825
NA,NA,NA,NA,gelb,yellow,1,NA,NA,NA,NA,1,11,23,NA,NA,NA,NA,NA,NA,sub-37000825
NA,NA,NA,NA,NA,NA,NA,NA,NA,NA,NA,NA,NA,NA,NA,NA,NA,NA,NA,NA,sub-37000825
NA,NA,NA,NA,NA,NA,NA,gelb,yellow,g,1,NA,NA,NA,0,0,0,g,1,0.6438781609758735,sub-37000825
NA,NA,NA,NA,NA,NA,NA,rot,yellow,g,0,NA,NA,NA,0,1,1,g,1,0.42511659499723464,sub-37000825
NA,NA,NA,NA,NA,NA,NA,blau,blue,b,1,NA,NA,NA,0,2,2,b,1,0.34132346700062044,sub-37000825
NA,NA,NA,NA,NA,NA,NA,blau,yellow,g,0,NA,NA,NA,0,3,3,g,1,0.5699477150046732,sub-37000825
NA,NA,NA,NA,NA,NA,NA,blau,blue,b,1,NA,NA,NA,0,4,4,b,1,0.5594755070051178,sub-37000825
NA,NA,NA,NA,NA,NA,NA,rot,blue,b,0,NA,NA,NA,0,5,5,b,1,0.5337195259926375,sub-37000825
NA,NA,NA,NA,NA,NA,NA,gelb,red,r,0,NA,NA,NA,0,6,6,r,1,0.35953468800289556,sub-37000825
NA,NA,NA,NA,NA,NA,NA,gelb,yellow,g,1,NA,NA,NA,0,7,7,g,1,0.4030105290003121,sub-37000825
NA,NA,NA,NA,NA,NA,NA,blau,red,r,0,NA,NA,NA,0,8,8,r,1,0.4090859089919832,sub-37000825
NA,NA,NA,NA,NA,NA,NA,rot,red,r,1,NA,NA,NA,0,9,9,r,1,0.3922079920012038,sub-37000825
NA,NA,NA,NA,NA,NA,NA,rot,red,r,1,NA,NA,NA,0,10,10,r,1,0.34320900301099755,sub-37000825
NA,NA,NA,NA,NA,NA,NA,gelb,blue,b,0,NA,NA,NA,0,11,11,b,1,0.36490975599735975,sub-37000825
NA,NA,NA,NA,NA,NA,NA,blau,red,r,0,NA,NA,NA,1,0,12,r,1,0.4912525659892708,sub-37000825
NA,NA,NA,NA,NA,NA,NA,rot,red,r,1,NA,NA,NA,1,1,13,r,1,0.4041251930175349,sub-37000825
NA,NA,NA,NA,NA,NA,NA,rot,yellow,g,0,NA,NA,NA,1,2,14,g,1,0.30829716398147866,sub-37000825
NA,NA,NA,NA,NA,NA,NA,blau,blue,b,1,NA,NA,NA,1,3,15,g,0,0.2741473140195012,sub-37000825
NA,NA,NA,NA,NA,NA,NA,gelb,blue,b,0,NA,NA,NA,1,4,16,b,1,0.37049438498797826,sub-37000825
NA,NA,NA,NA,NA,NA,NA,gelb,yellow,g,1,NA,NA,NA,1,5,17,g,1,0.45943756302585825,sub-37000825
NA,NA,NA,NA,NA,NA,NA,gelb,red,r,0,NA,NA,NA,1,6,18,r,1,0.28559343100641854,sub-37000825
NA,NA,NA,NA,NA,NA,NA,rot,red,r,1,NA,NA,NA,1,7,19,r,1,0.4703684560081456,sub-37000825
NA,NA,NA,NA,NA,NA,NA,rot,blue,b,0,NA,NA,NA,1,8,20,b,1,0.42455546400742605,sub-37000825
NA,NA,NA,NA,NA,NA,NA,blau,blue,b,1,NA,NA,NA,1,9,21,b,1,0.40272620000177994,sub-37000825
NA,NA,NA,NA,NA,NA,NA,gelb,yellow,g,1,NA,NA,NA,1,10,22,g,1,0.3929845840029884,sub-37000825
NA,NA,NA,NA,NA,NA,NA,blau,yellow,g,0,NA,NA,NA,1,11,23,g,1,0.3288503889925778,sub-37000825
NA,NA,NA,NA,NA,NA,NA,rot,red,r,1,NA,NA,NA,2,0,24,r,1,0.42960788699565455,sub-37000825
NA,NA,NA,NA,NA,NA,NA,gelb,yellow,g,1,NA,NA,NA,2,1,25,g,1,0.39299159799702466,sub-37000825
NA,NA,NA,NA,NA,NA,NA,rot,blue,b,0,NA,NA,NA,2,2,26,b,1,0.4411626849905588,sub-37000825
NA,NA,NA,NA,NA,NA,NA,blau,blue,b,1,NA,NA,NA,2,3,27,b,1,0.3374119329964742,sub-37000825
NA,NA,NA,NA,NA,NA,NA,gelb,blue,b,0,NA,NA,NA,2,4,28,b,1,0.3488682300085202,sub-37000825
NA,NA,NA,NA,NA,NA,NA,rot,yellow,g,0,NA,NA,NA,2,5,29,g,1,0.3986846379993949,sub-37000825
NA,NA,NA,NA,NA,NA,NA,gelb,red,r,0,NA,NA,NA,2,6,30,r,1,0.30716761900112033,sub-37000825
NA,NA,NA,NA,NA,NA,NA,blau,blue,b,1,NA,NA,NA,2,7,31,b,1,0.6998013299889863,sub-37000825
NA,NA,NA,NA,NA,NA,NA,rot,red,r,1,NA,NA,NA,2,8,32,r,1,0.4103388450166676,sub-37000825
NA,NA,NA,NA,NA,NA,NA,blau,red,r,0,NA,NA,NA,2,9,33,r,1,0.4046053670172114,sub-37000825
NA,NA,NA,NA,NA,NA,NA,blau,yellow,g,0,NA,NA,NA,2,10,34,g,1,0.49864408001303673,sub-37000825
NA,NA,NA,NA,NA,NA,NA,gelb,yellow,g,1,NA,NA,NA,2,11,35,r,0,0.3852579189988319,sub-37000825
NA,NA,NA,NA,NA,NA,NA,rot,blue,b,0,NA,NA,NA,3,0,36,b,1,0.4998503600072582,sub-37000825
NA,NA,NA,NA,NA,NA,NA,rot,yellow,g,0,NA,NA,NA,3,1,37,g,1,0.46446618597838096,sub-37000825
NA,NA,NA,NA,NA,NA,NA,blau,blue,b,1,NA,NA,NA,3,2,38,b,1,0.3885999640042428,sub-37000825
NA,NA,NA,NA,NA,NA,NA,blau,blue,b,1,NA,NA,NA,3,3,39,b,1,0.39270040299743414,sub-37000825
NA,NA,NA,NA,NA,NA,NA,blau,yellow,g,0,NA,NA,NA,3,4,40,g,1,0.4199820579960942,sub-37000825
NA,NA,NA,NA,NA,NA,NA,rot,red,r,1,NA,NA,NA,3,5,41,r,1,0.26396496599772945,sub-37000825
NA,NA,NA,NA,NA,NA,NA,rot,red,r,1,NA,NA,NA,3,6,42,r,1,0.373016956000356,sub-37000825
NA,NA,NA,NA,NA,NA,NA,gelb,red,r,0,NA,NA,NA,3,7,43,r,1,0.35062776698032394,sub-37000825
NA,NA,NA,NA,NA,NA,NA,gelb,yellow,g,1,NA,NA,NA,3,8,44,g,1,0.450546645995928,sub-37000825
NA,NA,NA,NA,NA,NA,NA,gelb,blue,b,0,NA,NA,NA,3,9,45,b,1,0.44073710998054594,sub-37000825
NA,NA,NA,NA,NA,NA,NA,blau,red,r,0,NA,NA,NA,3,10,46,b,0,0.42430462400079705,sub-37000825
NA,NA,NA,NA,NA,NA,NA,gelb,yellow,g,1,NA,NA,NA,3,11,47,g,1,0.5196604359953199,sub-37000825
NA,NA,NA,NA,NA,NA,NA,blau,blue,b,1,NA,NA,NA,4,0,48,b,1,0.4352589679765515,sub-37000825
NA,NA,NA,NA,NA,NA,NA,rot,yellow,g,0,NA,NA,NA,4,1,49,g,1,0.45250992200453766,sub-37000825
NA,NA,NA,NA,NA,NA,NA,blau,yellow,g,0,NA,NA,NA,4,2,50,g,1,0.3794651399948634,sub-37000825
NA,NA,NA,NA,NA,NA,NA,gelb,blue,b,0,NA,NA,NA,4,3,51,g,0,0.35731413497705944,sub-37000825
NA,NA,NA,NA,NA,NA,NA,gelb,yellow,g,1,NA,NA,NA,4,4,52,g,1,0.365249127993593,sub-37000825
NA,NA,NA,NA,NA,NA,NA,blau,red,r,0,NA,NA,NA,4,5,53,r,1,0.3076774219807703,sub-37000825
NA,NA,NA,NA,NA,NA,NA,rot,red,r,1,NA,NA,NA,4,6,54,r,1,0.38323692898848094,sub-37000825
NA,NA,NA,NA,NA,NA,NA,rot,red,r,1,NA,NA,NA,4,7,55,r,1,0.3662324839970097,sub-37000825
NA,NA,NA,NA,NA,NA,NA,blau,blue,b,1,NA,NA,NA,4,8,56,b,1,0.48193067900137976,sub-37000825
NA,NA,NA,NA,NA,NA,NA,gelb,red,r,0,NA,NA,NA,4,9,57,r,1,6.396871232980629,sub-37000825
NA,NA,NA,NA,NA,NA,NA,gelb,yellow,g,1,NA,NA,NA,4,10,58,g,1,0.5476882679795381,sub-37000825
NA,NA,NA,NA,NA,NA,NA,rot,blue,b,0,NA,NA,NA,4,11,59,b,1,0.7489347049850039,sub-37000825
NA,NA,NA,NA,NA,NA,NA,rot,yellow,g,0,NA,NA,NA,5,0,60,g,1,0.481847367977025,sub-37000825
NA,NA,NA,NA,NA,NA,NA,blau,blue,b,1,NA,NA,NA,5,1,61,b,1,0.445109266001964,sub-37000825
NA,NA,NA,NA,NA,NA,NA,gelb,red,r,0,NA,NA,NA,5,2,62,g,0,0.5295269600173924,sub-37000825
NA,NA,NA,NA,NA,NA,NA,rot,red,r,1,NA,NA,NA,5,3,63,r,1,0.6751505940046627,sub-37000825
NA,NA,NA,NA,NA,NA,NA,blau,yellow,g,0,NA,NA,NA,5,4,64,g,1,0.2822835289989598,sub-37000825
NA,NA,NA,NA,NA,NA,NA,rot,red,r,1,NA,NA,NA,5,5,65,g,0,0.43244947501807474,sub-37000825
NA,NA,NA,NA,NA,NA,NA,gelb,yellow,g,1,NA,NA,NA,5,6,66,g,1,0.5037518260069191,sub-37000825
NA,NA,NA,NA,NA,NA,NA,gelb,blue,b,0,NA,NA,NA,5,7,67,b,1,0.3840608359896578,sub-37000825
NA,NA,NA,NA,NA,NA,NA,blau,blue,b,1,NA,NA,NA,5,8,68,b,1,0.42887830300605856,sub-37000825
NA,NA,NA,NA,NA,NA,NA,blau,red,r,0,NA,NA,NA,5,9,69,r,1,0.5269444339792244,sub-37000825
NA,NA,NA,NA,NA,NA,NA,gelb,yellow,g,1,NA,NA,NA,5,10,70,g,1,0.30684381900937296,sub-37000825
NA,NA,NA,NA,NA,NA,NA,rot,blue,b,0,NA,NA,NA,5,11,71,r,0,0.4660791769856587,sub-37000825
NA,NA,NA,NA,NA,NA,NA,gelb,yellow,g,1,NA,NA,NA,6,0,72,b,0,0.5686506440106314,sub-37000825
NA,NA,NA,NA,NA,NA,NA,gelb,yellow,g,1,NA,NA,NA,6,1,73,g,1,0.395255077019101,sub-37000825
NA,NA,NA,NA,NA,NA,NA,blau,blue,b,1,NA,NA,NA,6,2,74,b,1,0.47027249599341303,sub-37000825
NA,NA,NA,NA,NA,NA,NA,rot,blue,b,0,NA,NA,NA,6,3,75,g,0,0.4987792249885388,sub-37000825
NA,NA,NA,NA,NA,NA,NA,blau,red,r,0,NA,NA,NA,6,4,76,r,1,1.1032785210118163,sub-37000825
NA,NA,NA,NA,NA,NA,NA,rot,yellow,g,0,NA,NA,NA,6,5,77,r,0,0.4306834980088752,sub-37000825
NA,NA,NA,NA,NA,NA,NA,rot,red,r,1,NA,NA,NA,6,6,78,g,0,0.6209469180030283,sub-37000825
NA,NA,NA,NA,NA,NA,NA,blau,blue,b,1,NA,NA,NA,6,7,79,b,1,0.4680788280093111,sub-37000825
NA,NA,NA,NA,NA,NA,NA,gelb,red,r,0,NA,NA,NA,6,8,80,r,1,0.30026705900672823,sub-37000825
NA,NA,NA,NA,NA,NA,NA,rot,red,r,1,NA,NA,NA,6,9,81,r,1,0.4551412820001133,sub-37000825
NA,NA,NA,NA,NA,NA,NA,blau,yellow,g,0,NA,NA,NA,6,10,82,g,1,0.4756256809923798,sub-37000825
NA,NA,NA,NA,NA,NA,NA,gelb,blue,b,0,NA,NA,NA,6,11,83,b,1,0.44226310701924376,sub-37000825
NA,NA,NA,NA,NA,NA,NA,blau,blue,b,1,NA,NA,NA,7,0,84,b,1,0.45067690100404434,sub-37000825
NA,NA,NA,NA,NA,NA,NA,blau,red,r,0,NA,NA,NA,7,1,85,r,1,0.32031895898398943,sub-37000825
NA,NA,NA,NA,NA,NA,NA,rot,blue,b,0,NA,NA,NA,7,2,86,r,0,0.3467501309933141,sub-37000825
NA,NA,NA,NA,NA,NA,NA,gelb,blue,b,0,NA,NA,NA,7,3,87,r,0,0.3193065410014242,sub-37000825
NA,NA,NA,NA,NA,NA,NA,blau,yellow,g,0,NA,NA,NA,7,4,88,g,1,0.6377260439912789,sub-37000825
NA,NA,NA,NA,NA,NA,NA,gelb,red,r,0,NA,NA,NA,7,5,89,r,1,0.5233749329927377,sub-37000825
NA,NA,NA,NA,NA,NA,NA,rot,red,r,1,NA,NA,NA,7,6,90,r,1,0.3532202529895585,sub-37000825
NA,NA,NA,NA,NA,NA,NA,rot,red,r,1,NA,NA,NA,7,7,91,r,1,0.3379423870064784,sub-37000825
NA,NA,NA,NA,NA,NA,NA,gelb,yellow,g,1,NA,NA,NA,7,8,92,r,0,0.29820961100631393,sub-37000825
NA,NA,NA,NA,NA,NA,NA,blau,blue,b,1,NA,NA,NA,7,9,93,r,0,0.4024971660110168,sub-37000825
NA,NA,NA,NA,NA,NA,NA,rot,yellow,g,0,NA,NA,NA,7,10,94,g,1,0.4379607730079442,sub-37000825
NA,NA,NA,NA,NA,NA,NA,gelb,yellow,g,1,NA,NA,NA,7,11,95,g,1,0.5881157249968965,sub-37000825
NA,NA,NA,NA,NA,NA,NA,blau,red,r,0,NA,NA,NA,8,0,96,r,1,0.5045491089986172,sub-37000825
NA,NA,NA,NA,NA,NA,NA,rot,yellow,g,0,NA,NA,NA,8,1,97,r,0,0.35702044700155966,sub-37000825
NA,NA,NA,NA,NA,NA,NA,gelb,yellow,g,1,NA,NA,NA,8,2,98,g,1,0.4888734550040681,sub-37000825
NA,NA,NA,NA,NA,NA,NA,rot,red,r,1,NA,NA,NA,8,3,99,r,1,0.5113074099936057,sub-37000825
NA,NA,NA,NA,NA,NA,NA,rot,blue,b,0,NA,NA,NA,8,4,100,b,1,0.26790652802446857,sub-37000825
NA,NA,NA,NA,NA,NA,NA,gelb,yellow,g,1,NA,NA,NA,8,5,101,g,1,0.30213830500724725,sub-37000825
NA,NA,NA,NA,NA,NA,NA,gelb,blue,b,0,NA,NA,NA,8,6,102,b,1,0.39346168100018986,sub-37000825
NA,NA,NA,NA,NA,NA,NA,blau,blue,b,1,NA,NA,NA,8,7,103,b,1,0.4887453500123229,sub-37000825
NA,NA,NA,NA,NA,NA,NA,blau,blue,b,1,NA,NA,NA,8,8,104,b,1,0.3713126509974245,sub-37000825
NA,NA,NA,NA,NA,NA,NA,rot,red,r,1,NA,NA,NA,8,9,105,r,1,0.5167017900093924,sub-37000825
NA,NA,NA,NA,NA,NA,NA,gelb,red,r,0,NA,NA,NA,8,10,106,g,0,0.44386554800439626,sub-37000825
NA,NA,NA,NA,NA,NA,NA,blau,yellow,g,0,NA,NA,NA,8,11,107,b,0,0.8295601889840327,sub-37000825
NA,NA,NA,NA,NA,NA,NA,blau,blue,b,1,NA,NA,NA,9,0,108,b,1,0.544913617981365,sub-37000825
NA,NA,NA,NA,NA,NA,NA,rot,yellow,g,0,NA,NA,NA,9,1,109,r,0,0.8050052959879395,sub-37000825
NA,NA,NA,NA,NA,NA,NA,rot,red,r,1,NA,NA,NA,9,2,110,r,1,0.5282379930140451,sub-37000825
NA,NA,NA,NA,NA,NA,NA,gelb,yellow,g,1,NA,NA,NA,9,3,111,g,1,0.6931498320191167,sub-37000825
NA,NA,NA,NA,NA,NA,NA,gelb,blue,b,0,NA,NA,NA,9,4,112,b,1,0.6252105160092469,sub-37000825
NA,NA,NA,NA,NA,NA,NA,gelb,red,r,0,NA,NA,NA,9,5,113,r,1,0.5207047979929484,sub-37000825
NA,NA,NA,NA,NA,NA,NA,rot,blue,b,0,NA,NA,NA,9,6,114,g,0,0.3527174179907888,sub-37000825
NA,NA,NA,NA,NA,NA,NA,blau,yellow,g,0,NA,NA,NA,9,7,115,b,0,0.6817862589959987,sub-37000825
NA,NA,NA,NA,NA,NA,NA,blau,red,r,0,NA,NA,NA,9,8,116,r,1,0.6700627029931638,sub-37000825
NA,NA,NA,NA,NA,NA,NA,gelb,yellow,g,1,NA,NA,NA,9,9,117,g,1,0.592626958998153,sub-37000825
NA,NA,NA,NA,NA,NA,NA,blau,blue,b,1,NA,NA,NA,9,10,118,b,1,0.8213539980060887,sub-37000825
NA,NA,NA,NA,NA,NA,NA,rot,red,r,1,NA,NA,NA,9,11,119,r,1,0.7377291609882377,sub-37000825
NA,NA,NA,NA,NA,NA,NA,NA,NA,NA,NA,NA,NA,NA,NA,NA,NA,NA,NA,NA,sub-37000825
