wordCTK,colorCTK,corrAnsCTK,congruentCTK,wordPractice,colorPractice,congruentPractice,word,color,corrAns,congruent,trials_practice.thisRepN,trials_practice.thisTrialN,trials_practice.thisN,trials_test.thisRepN,trials_test.thisTrialN,trials_test.thisN,keyResp_test_run.keys,keyResp_test_run.corr,keyResp_test_run.rt,participant
NA,NA,NA,NA,NA,NA,NA,NA,NA,NA,NA,NA,NA,NA,NA,NA,NA,NA,NA,NA,sub-69350861
NA,NA,NA,NA,NA,NA,NA,NA,NA,NA,NA,NA,NA,NA,NA,NA,NA,NA,NA,NA,sub-69350861
test,blue,b,1,NA,NA,NA,NA,NA,NA,NA,NA,NA,NA,NA,NA,NA,NA,NA,NA,sub-69350861
test,red,r,1,NA,NA,NA,NA,NA,NA,NA,NA,NA,NA,NA,NA,NA,NA,NA,NA,sub-69350861
test,yellow,g,1,NA,NA,NA,NA,NA,NA,NA,NA,NA,NA,NA,NA,NA,NA,NA,NA,sub-69350861
test,red,r,1,NA,NA,NA,NA,NA,NA,NA,NA,NA,NA,NA,NA,NA,NA,NA,NA,sub-69350861
test,blue,b,1,NA,NA,NA,NA,NA,NA,NA,NA,NA,NA,NA,NA,NA,NA,NA,NA,sub-69350861
test,yellow,g,1,NA,NA,NA,NA,NA,NA,NA,NA,NA,NA,NA,NA,NA,NA,NA,NA,sub-69350861
test,red,r,1,NA,NA,NA,NA,NA,NA,NA,NA,NA,NA,NA,NA,NA,NA,NA,NA,sub-69350861
test,yellow,g,1,NA,NA,NA,NA,NA,NA,NA,NA,NA,NA,NA,NA,NA,NA,NA,NA,sub-69350861
test,blue,b,1,NA,NA,NA,NA,NA,NA,NA,NA,NA,NA,NA,NA,NA,NA,NA,NA,sub-69350861
test,red,r,1,NA,NA,NA,NA,NA,NA,NA,NA,NA,NA,NA,NA,NA,NA,NA,NA,sub-69350861
test,blue,b,1,NA,NA,NA,NA,NA,NA,NA,NA,NA,NA,NA,NA,NA,NA,NA,NA,sub-69350861
test,yellow,g,1,NA,NA,NA,NA,NA,NA,NA,NA,NA,NA,NA,NA,NA,NA,NA,NA,sub-69350861
NA,NA,NA,NA,NA,NA,NA,NA,NA,NA,NA,NA,NA,NA,NA,NA,NA,NA,NA,NA,sub-69350861
NA,NA,NA,NA,rot,red,1,NA,NA,NA,NA,0,0,0,NA,NA,NA,NA,NA,NA,sub-69350861
NA,NA,NA,NA,blau,yellow,0,NA,NA,NA,NA,0,1,1,NA,NA,NA,NA,NA,NA,sub-69350861
NA,NA,NA,NA,gelb,yellow,1,NA,NA,NA,NA,0,2,2,NA,NA,NA,NA,NA,NA,sub-69350861
NA,NA,NA,NA,gelb,red,0,NA,NA,NA,NA,0,3,3,NA,NA,NA,NA,NA,NA,sub-69350861
NA,NA,NA,NA,blau,blue,1,NA,NA,NA,NA,0,4,4,NA,NA,NA,NA,NA,NA,sub-69350861
NA,NA,NA,NA,rot,blue,0,NA,NA,NA,NA,0,5,5,NA,NA,NA,NA,NA,NA,sub-69350861
NA,NA,NA,NA,gelb,blue,0,NA,NA,NA,NA,0,6,6,NA,NA,NA,NA,NA,NA,sub-69350861
NA,NA,NA,NA,rot,yellow,0,NA,NA,NA,NA,0,7,7,NA,NA,NA,NA,NA,NA,sub-69350861
NA,NA,NA,NA,rot,red,1,NA,NA,NA,NA,0,8,8,NA,NA,NA,NA,NA,NA,sub-69350861
NA,NA,NA,NA,gelb,yellow,1,NA,NA,NA,NA,0,9,9,NA,NA,NA,NA,NA,NA,sub-69350861
NA,NA,NA,NA,blau,red,0,NA,NA,NA,NA,0,10,10,NA,NA,NA,NA,NA,NA,sub-69350861
NA,NA,NA,NA,blau,blue,1,NA,NA,NA,NA,0,11,11,NA,NA,NA,NA,NA,NA,sub-69350861
NA,NA,NA,NA,gelb,blue,0,NA,NA,NA,NA,1,0,12,NA,NA,NA,NA,NA,NA,sub-69350861
NA,NA,NA,NA,rot,red,1,NA,NA,NA,NA,1,1,13,NA,NA,NA,NA,NA,NA,sub-69350861
NA,NA,NA,NA,gelb,red,0,NA,NA,NA,NA,1,2,14,NA,NA,NA,NA,NA,NA,sub-69350861
NA,NA,NA,NA,blau,blue,1,NA,NA,NA,NA,1,3,15,NA,NA,NA,NA,NA,NA,sub-69350861
NA,NA,NA,NA,rot,blue,0,NA,NA,NA,NA,1,4,16,NA,NA,NA,NA,NA,NA,sub-69350861
NA,NA,NA,NA,rot,red,1,NA,NA,NA,NA,1,5,17,NA,NA,NA,NA,NA,NA,sub-69350861
NA,NA,NA,NA,blau,blue,1,NA,NA,NA,NA,1,6,18,NA,NA,NA,NA,NA,NA,sub-69350861
NA,NA,NA,NA,blau,yellow,0,NA,NA,NA,NA,1,7,19,NA,NA,NA,NA,NA,NA,sub-69350861
NA,NA,NA,NA,gelb,yellow,1,NA,NA,NA,NA,1,8,20,NA,NA,NA,NA,NA,NA,sub-69350861
NA,NA,NA,NA,gelb,yellow,1,NA,NA,NA,NA,1,9,21,NA,NA,NA,NA,NA,NA,sub-69350861
NA,NA,NA,NA,blau,red,0,NA,NA,NA,NA,1,10,22,NA,NA,NA,NA,NA,NA,sub-69350861
NA,NA,NA,NA,rot,yellow,0,NA,NA,NA,NA,1,11,23,NA,NA,NA,NA,NA,NA,sub-69350861
NA,NA,NA,NA,NA,NA,NA,NA,NA,NA,NA,NA,NA,NA,NA,NA,NA,NA,NA,NA,sub-69350861
NA,NA,NA,NA,NA,NA,NA,rot,blue,b,0,NA,NA,NA,0,0,0,b,1,1.6468037000158802,sub-69350861
NA,NA,NA,NA,NA,NA,NA,blau,blue,b,1,NA,NA,NA,0,1,1,b,1,0.7090077000902966,sub-69350861
NA,NA,NA,NA,NA,NA,NA,rot,red,r,1,NA,NA,NA,0,2,2,r,1,0.949756099958904,sub-69350861
NA,NA,NA,NA,NA,NA,NA,gelb,yellow,g,1,NA,NA,NA,0,3,3,g,1,0.6499411999247968,sub-69350861
NA,NA,NA,NA,NA,NA,NA,gelb,blue,b,0,NA,NA,NA,0,4,4,b,1,0.7509993000421673,sub-69350861
NA,NA,NA,NA,NA,NA,NA,rot,yellow,g,0,NA,NA,NA,0,5,5,g,1,1.3712185999611393,sub-69350861
NA,NA,NA,NA,NA,NA,NA,blau,blue,b,1,NA,NA,NA,0,6,6,b,1,0.6981200000736862,sub-69350861
NA,NA,NA,NA,NA,NA,NA,blau,red,r,0,NA,NA,NA,0,7,7,r,1,1.0603138000005856,sub-69350861
NA,NA,NA,NA,NA,NA,NA,blau,yellow,g,0,NA,NA,NA,0,8,8,g,1,1.563337399973534,sub-69350861
NA,NA,NA,NA,NA,NA,NA,rot,red,r,1,NA,NA,NA,0,9,9,r,1,0.8241664000088349,sub-69350861
NA,NA,NA,NA,NA,NA,NA,gelb,red,r,0,NA,NA,NA,0,10,10,r,1,1.0142586000729352,sub-69350861
NA,NA,NA,NA,NA,NA,NA,gelb,yellow,g,1,NA,NA,NA,0,11,11,g,1,0.6165251000784338,sub-69350861
NA,NA,NA,NA,NA,NA,NA,gelb,blue,b,0,NA,NA,NA,1,0,12,b,1,0.5881691999966279,sub-69350861
NA,NA,NA,NA,NA,NA,NA,gelb,red,r,0,NA,NA,NA,1,1,13,r,1,0.9892048999899998,sub-69350861
NA,NA,NA,NA,NA,NA,NA,rot,red,r,1,NA,NA,NA,1,2,14,r,1,0.6490227000322193,sub-69350861
NA,NA,NA,NA,NA,NA,NA,blau,blue,b,1,NA,NA,NA,1,3,15,b,1,1.0141728000016883,sub-69350861
NA,NA,NA,NA,NA,NA,NA,blau,yellow,g,0,NA,NA,NA,1,4,16,g,1,0.9051128999562934,sub-69350861
NA,NA,NA,NA,NA,NA,NA,rot,blue,b,0,NA,NA,NA,1,5,17,b,1,0.9329012000234798,sub-69350861
NA,NA,NA,NA,NA,NA,NA,rot,yellow,g,0,NA,NA,NA,1,6,18,g,1,1.1618820999283344,sub-69350861
NA,NA,NA,NA,NA,NA,NA,gelb,yellow,g,1,NA,NA,NA,1,7,19,g,1,0.8658533999696374,sub-69350861
NA,NA,NA,NA,NA,NA,NA,blau,red,r,0,NA,NA,NA,1,8,20,r,1,0.9387467000633478,sub-69350861
NA,NA,NA,NA,NA,NA,NA,gelb,yellow,g,1,NA,NA,NA,1,9,21,g,1,0.8369157999986783,sub-69350861
NA,NA,NA,NA,NA,NA,NA,blau,blue,b,1,NA,NA,NA,1,10,22,b,1,0.5564544999506325,sub-69350861
NA,NA,NA,NA,NA,NA,NA,rot,red,r,1,NA,NA,NA,1,11,23,r,1,0.9407067999709398,sub-69350861
NA,NA,NA,NA,NA,NA,NA,blau,red,r,0,NA,NA,NA,2,0,24,r,1,1.65355589997489,sub-69350861
NA,NA,NA,NA,NA,NA,NA,rot,blue,b,0,NA,NA,NA,2,1,25,b,1,1.4896357000106946,sub-69350861
NA,NA,NA,NA,NA,NA,NA,gelb,blue,b,0,NA,NA,NA,2,2,26,b,1,0.7392216000007465,sub-69350861
NA,NA,NA,NA,NA,NA,NA,gelb,red,r,0,NA,NA,NA,2,3,27,r,1,0.8270585000282153,sub-69350861
NA,NA,NA,NA,NA,NA,NA,gelb,yellow,g,1,NA,NA,NA,2,4,28,g,1,0.6730152999516577,sub-69350861
NA,NA,NA,NA,NA,NA,NA,rot,red,r,1,NA,NA,NA,2,5,29,r,1,0.6365245999768376,sub-69350861
NA,NA,NA,NA,NA,NA,NA,blau,yellow,g,0,NA,NA,NA,2,6,30,g,1,1.3811088999500498,sub-69350861
NA,NA,NA,NA,NA,NA,NA,gelb,yellow,g,1,NA,NA,NA,2,7,31,g,1,0.6824152999324724,sub-69350861
NA,NA,NA,NA,NA,NA,NA,blau,blue,b,1,NA,NA,NA,2,8,32,b,1,0.8666134000523016,sub-69350861
NA,NA,NA,NA,NA,NA,NA,blau,blue,b,1,NA,NA,NA,2,9,33,b,1,0.5882110999664292,sub-69350861
NA,NA,NA,NA,NA,NA,NA,rot,red,r,1,NA,NA,NA,2,10,34,r,1,0.8082788999890909,sub-69350861
NA,NA,NA,NA,NA,NA,NA,rot,yellow,g,0,NA,NA,NA,2,11,35,g,1,0.8348449000623077,sub-69350861
NA,NA,NA,NA,NA,NA,NA,blau,yellow,g,0,NA,NA,NA,3,0,36,g,1,0.5516478000208735,sub-69350861
NA,NA,NA,NA,NA,NA,NA,rot,red,r,1,NA,NA,NA,3,1,37,r,1,0.7578501000534743,sub-69350861
NA,NA,NA,NA,NA,NA,NA,gelb,yellow,g,1,NA,NA,NA,3,2,38,g,1,0.9027768999803812,sub-69350861
NA,NA,NA,NA,NA,NA,NA,blau,red,r,0,NA,NA,NA,3,3,39,r,1,0.8949700000230223,sub-69350861
NA,NA,NA,NA,NA,NA,NA,gelb,red,r,0,NA,NA,NA,3,4,40,r,1,0.636921799974516,sub-69350861
NA,NA,NA,NA,NA,NA,NA,rot,blue,b,0,NA,NA,NA,3,5,41,b,1,0.7311412000562996,sub-69350861
NA,NA,NA,NA,NA,NA,NA,blau,blue,b,1,NA,NA,NA,3,6,42,b,1,0.511536700068973,sub-69350861
NA,NA,NA,NA,NA,NA,NA,gelb,blue,b,0,NA,NA,NA,3,7,43,b,1,0.5992380999960005,sub-69350861
NA,NA,NA,NA,NA,NA,NA,rot,yellow,g,0,NA,NA,NA,3,8,44,g,1,0.7189221000298858,sub-69350861
NA,NA,NA,NA,NA,NA,NA,blau,blue,b,1,NA,NA,NA,3,9,45,b,1,0.7027084999717772,sub-69350861
NA,NA,NA,NA,NA,NA,NA,rot,red,r,1,NA,NA,NA,3,10,46,g,0,0.7774072999600321,sub-69350861
NA,NA,NA,NA,NA,NA,NA,gelb,yellow,g,1,NA,NA,NA,3,11,47,g,1,0.8327197000617161,sub-69350861
NA,NA,NA,NA,NA,NA,NA,blau,blue,b,1,NA,NA,NA,4,0,48,b,1,0.8187364999903366,sub-69350861
NA,NA,NA,NA,NA,NA,NA,rot,blue,b,0,NA,NA,NA,4,1,49,b,1,1.1331683999160305,sub-69350861
NA,NA,NA,NA,NA,NA,NA,gelb,yellow,g,1,NA,NA,NA,4,2,50,g,1,0.9189258000114932,sub-69350861
NA,NA,NA,NA,NA,NA,NA,rot,red,r,1,NA,NA,NA,4,3,51,r,1,0.8832307999255136,sub-69350861
NA,NA,NA,NA,NA,NA,NA,gelb,red,r,0,NA,NA,NA,4,4,52,r,1,1.3846552999457344,sub-69350861
NA,NA,NA,NA,NA,NA,NA,blau,yellow,g,0,NA,NA,NA,4,5,53,g,1,1.2329454999417069,sub-69350861
NA,NA,NA,NA,NA,NA,NA,rot,red,r,1,NA,NA,NA,4,6,54,r,1,0.8329538999823853,sub-69350861
NA,NA,NA,NA,NA,NA,NA,rot,yellow,g,0,NA,NA,NA,4,7,55,g,1,0.9158654999919236,sub-69350861
NA,NA,NA,NA,NA,NA,NA,gelb,blue,b,0,NA,NA,NA,4,8,56,b,1,0.6588612999767065,sub-69350861
NA,NA,NA,NA,NA,NA,NA,gelb,yellow,g,1,NA,NA,NA,4,9,57,g,1,1.0668880000011995,sub-69350861
NA,NA,NA,NA,NA,NA,NA,blau,blue,b,1,NA,NA,NA,4,10,58,b,1,0.8955185000086203,sub-69350861
NA,NA,NA,NA,NA,NA,NA,blau,red,r,0,NA,NA,NA,4,11,59,r,1,0.8483137999428436,sub-69350861
NA,NA,NA,NA,NA,NA,NA,gelb,yellow,g,1,NA,NA,NA,5,0,60,g,1,0.7146338999737054,sub-69350861
NA,NA,NA,NA,NA,NA,NA,gelb,yellow,g,1,NA,NA,NA,5,1,61,g,1,1.1684367000125349,sub-69350861
NA,NA,NA,NA,NA,NA,NA,rot,red,r,1,NA,NA,NA,5,2,62,r,1,0.7940927000017837,sub-69350861
NA,NA,NA,NA,NA,NA,NA,blau,blue,b,1,NA,NA,NA,5,3,63,b,1,0.8129867999814451,sub-69350861
NA,NA,NA,NA,NA,NA,NA,rot,yellow,g,0,NA,NA,NA,5,4,64,g,1,1.003513399977237,sub-69350861
NA,NA,NA,NA,NA,NA,NA,blau,blue,b,1,NA,NA,NA,5,5,65,b,1,0.8960750999394804,sub-69350861
NA,NA,NA,NA,NA,NA,NA,blau,yellow,g,0,NA,NA,NA,5,6,66,g,1,1.0839140999596566,sub-69350861
NA,NA,NA,NA,NA,NA,NA,rot,blue,b,0,NA,NA,NA,5,7,67,b,1,0.8013081999961287,sub-69350861
NA,NA,NA,NA,NA,NA,NA,rot,red,r,1,NA,NA,NA,5,8,68,r,1,0.8455239000031725,sub-69350861
NA,NA,NA,NA,NA,NA,NA,blau,red,r,0,NA,NA,NA,5,9,69,r,1,0.7749958999920636,sub-69350861
NA,NA,NA,NA,NA,NA,NA,gelb,blue,b,0,NA,NA,NA,5,10,70,b,1,0.7750923000276089,sub-69350861
NA,NA,NA,NA,NA,NA,NA,gelb,red,r,0,NA,NA,NA,5,11,71,r,1,1.022726400056854,sub-69350861
NA,NA,NA,NA,NA,NA,NA,rot,blue,b,0,NA,NA,NA,6,0,72,b,1,0.7806262000231072,sub-69350861
NA,NA,NA,NA,NA,NA,NA,rot,yellow,g,0,NA,NA,NA,6,1,73,g,1,0.8596994000254199,sub-69350861
NA,NA,NA,NA,NA,NA,NA,rot,red,r,1,NA,NA,NA,6,2,74,r,1,0.8519805999239907,sub-69350861
NA,NA,NA,NA,NA,NA,NA,rot,red,r,1,NA,NA,NA,6,3,75,r,1,0.7250607999740168,sub-69350861
NA,NA,NA,NA,NA,NA,NA,blau,blue,b,1,NA,NA,NA,6,4,76,b,1,0.6482788999564946,sub-69350861
NA,NA,NA,NA,NA,NA,NA,blau,yellow,g,0,NA,NA,NA,6,5,77,g,1,0.862848800024949,sub-69350861
NA,NA,NA,NA,NA,NA,NA,blau,blue,b,1,NA,NA,NA,6,6,78,b,1,0.7741504000732675,sub-69350861
NA,NA,NA,NA,NA,NA,NA,gelb,red,r,0,NA,NA,NA,6,7,79,r,1,0.7627462000818923,sub-69350861
NA,NA,NA,NA,NA,NA,NA,gelb,yellow,g,1,NA,NA,NA,6,8,80,g,1,0.5983557000290602,sub-69350861
NA,NA,NA,NA,NA,NA,NA,blau,red,r,0,NA,NA,NA,6,9,81,r,1,0.783199500059709,sub-69350861
NA,NA,NA,NA,NA,NA,NA,gelb,yellow,g,1,NA,NA,NA,6,10,82,g,1,0.812414399930276,sub-69350861
NA,NA,NA,NA,NA,NA,NA,gelb,blue,b,0,NA,NA,NA,6,11,83,b,1,0.5431855000788346,sub-69350861
NA,NA,NA,NA,NA,NA,NA,rot,yellow,g,0,NA,NA,NA,7,0,84,g,1,0.8099355000304058,sub-69350861
NA,NA,NA,NA,NA,NA,NA,rot,red,r,1,NA,NA,NA,7,1,85,r,1,0.4681587000377476,sub-69350861
NA,NA,NA,NA,NA,NA,NA,rot,blue,b,0,NA,NA,NA,7,2,86,b,1,1.0020157000981271,sub-69350861
NA,NA,NA,NA,NA,NA,NA,blau,blue,b,1,NA,NA,NA,7,3,87,b,1,0.5747759999940172,sub-69350861
NA,NA,NA,NA,NA,NA,NA,blau,blue,b,1,NA,NA,NA,7,4,88,b,1,0.4649520000675693,sub-69350861
NA,NA,NA,NA,NA,NA,NA,rot,red,r,1,NA,NA,NA,7,5,89,r,1,0.6168848000233993,sub-69350861
NA,NA,NA,NA,NA,NA,NA,gelb,blue,b,0,NA,NA,NA,7,6,90,b,1,0.6690872000763193,sub-69350861
NA,NA,NA,NA,NA,NA,NA,blau,red,r,0,NA,NA,NA,7,7,91,r,1,0.768027100013569,sub-69350861
NA,NA,NA,NA,NA,NA,NA,gelb,yellow,g,1,NA,NA,NA,7,8,92,g,1,0.8565094000659883,sub-69350861
NA,NA,NA,NA,NA,NA,NA,gelb,yellow,g,1,NA,NA,NA,7,9,93,g,1,0.5701782999094576,sub-69350861
NA,NA,NA,NA,NA,NA,NA,gelb,red,r,0,NA,NA,NA,7,10,94,r,1,0.8803673998918384,sub-69350861
NA,NA,NA,NA,NA,NA,NA,blau,yellow,g,0,NA,NA,NA,7,11,95,g,1,0.9248320000478998,sub-69350861
NA,NA,NA,NA,NA,NA,NA,blau,blue,b,1,NA,NA,NA,8,0,96,b,1,0.6479677999159321,sub-69350861
NA,NA,NA,NA,NA,NA,NA,blau,yellow,g,0,NA,NA,NA,8,1,97,g,1,0.7898288998985663,sub-69350861
NA,NA,NA,NA,NA,NA,NA,rot,red,r,1,NA,NA,NA,8,2,98,r,1,0.5410651999991387,sub-69350861
NA,NA,NA,NA,NA,NA,NA,blau,red,r,0,NA,NA,NA,8,3,99,r,1,1.3362674999516455,sub-69350861
NA,NA,NA,NA,NA,NA,NA,gelb,yellow,g,1,NA,NA,NA,8,4,100,g,1,0.7995594999520108,sub-69350861
NA,NA,NA,NA,NA,NA,NA,rot,red,r,1,NA,NA,NA,8,5,101,r,1,0.7405495999846607,sub-69350861
NA,NA,NA,NA,NA,NA,NA,blau,blue,b,1,NA,NA,NA,8,6,102,b,1,0.6629154999973252,sub-69350861
NA,NA,NA,NA,NA,NA,NA,gelb,yellow,g,1,NA,NA,NA,8,7,103,g,1,0.7511068000458181,sub-69350861
NA,NA,NA,NA,NA,NA,NA,gelb,blue,b,0,NA,NA,NA,8,8,104,b,1,0.7836604999611154,sub-69350861
NA,NA,NA,NA,NA,NA,NA,rot,blue,b,0,NA,NA,NA,8,9,105,b,1,0.9291808999842032,sub-69350861
NA,NA,NA,NA,NA,NA,NA,rot,yellow,g,0,NA,NA,NA,8,10,106,g,1,0.7461517000338063,sub-69350861
NA,NA,NA,NA,NA,NA,NA,gelb,red,r,0,NA,NA,NA,8,11,107,r,1,0.648864799994044,sub-69350861
NA,NA,NA,NA,NA,NA,NA,blau,red,r,0,NA,NA,NA,9,0,108,r,1,0.8354743999661878,sub-69350861
NA,NA,NA,NA,NA,NA,NA,blau,yellow,g,0,NA,NA,NA,9,1,109,g,1,0.9031936000101268,sub-69350861
NA,NA,NA,NA,NA,NA,NA,gelb,red,r,0,NA,NA,NA,9,2,110,r,1,0.7799467999720946,sub-69350861
NA,NA,NA,NA,NA,NA,NA,rot,red,r,1,NA,NA,NA,9,3,111,r,1,0.6267975000664592,sub-69350861
NA,NA,NA,NA,NA,NA,NA,rot,blue,b,0,NA,NA,NA,9,4,112,b,1,0.7595382999861613,sub-69350861
NA,NA,NA,NA,NA,NA,NA,gelb,yellow,g,1,NA,NA,NA,9,5,113,g,1,0.6534628999652341,sub-69350861
NA,NA,NA,NA,NA,NA,NA,blau,blue,b,1,NA,NA,NA,9,6,114,b,1,0.8465550999389961,sub-69350861
NA,NA,NA,NA,NA,NA,NA,rot,yellow,g,0,NA,NA,NA,9,7,115,g,1,0.7591003000270575,sub-69350861
NA,NA,NA,NA,NA,NA,NA,blau,blue,b,1,NA,NA,NA,9,8,116,b,1,0.5946590000530705,sub-69350861
NA,NA,NA,NA,NA,NA,NA,gelb,yellow,g,1,NA,NA,NA,9,9,117,g,1,0.676511799916625,sub-69350861
NA,NA,NA,NA,NA,NA,NA,rot,red,r,1,NA,NA,NA,9,10,118,r,1,0.6877174000255764,sub-69350861
NA,NA,NA,NA,NA,NA,NA,gelb,blue,b,0,NA,NA,NA,9,11,119,b,1,0.7924514000769705,sub-69350861
NA,NA,NA,NA,NA,NA,NA,NA,NA,NA,NA,NA,NA,NA,NA,NA,NA,NA,NA,NA,sub-69350861
