wordCTK,colorCTK,corrAnsCTK,congruentCTK,wordPractice,colorPractice,congruentPractice,word,color,corrAns,congruent,trials_practice.thisRepN,trials_practice.thisTrialN,trials_practice.thisN,trials_test.thisRepN,trials_test.thisTrialN,trials_test.thisN,keyResp_test_run.keys,keyResp_test_run.corr,keyResp_test_run.rt,participant
NA,NA,NA,NA,NA,NA,NA,NA,NA,NA,NA,NA,NA,NA,NA,NA,NA,NA,NA,NA,sub-61246285
NA,NA,NA,NA,NA,NA,NA,NA,NA,NA,NA,NA,NA,NA,NA,NA,NA,NA,NA,NA,sub-61246285
test,yellow,g,1,NA,NA,NA,NA,NA,NA,NA,NA,NA,NA,NA,NA,NA,NA,NA,NA,sub-61246285
test,red,r,1,NA,NA,NA,NA,NA,NA,NA,NA,NA,NA,NA,NA,NA,NA,NA,NA,sub-61246285
test,blue,b,1,NA,NA,NA,NA,NA,NA,NA,NA,NA,NA,NA,NA,NA,NA,NA,NA,sub-61246285
test,yellow,g,1,NA,NA,NA,NA,NA,NA,NA,NA,NA,NA,NA,NA,NA,NA,NA,NA,sub-61246285
test,blue,b,1,NA,NA,NA,NA,NA,NA,NA,NA,NA,NA,NA,NA,NA,NA,NA,NA,sub-61246285
test,red,r,1,NA,NA,NA,NA,NA,NA,NA,NA,NA,NA,NA,NA,NA,NA,NA,NA,sub-61246285
test,yellow,g,1,NA,NA,NA,NA,NA,NA,NA,NA,NA,NA,NA,NA,NA,NA,NA,NA,sub-61246285
test,red,r,1,NA,NA,NA,NA,NA,NA,NA,NA,NA,NA,NA,NA,NA,NA,NA,NA,sub-61246285
test,blue,b,1,NA,NA,NA,NA,NA,NA,NA,NA,NA,NA,NA,NA,NA,NA,NA,NA,sub-61246285
test,red,r,1,NA,NA,NA,NA,NA,NA,NA,NA,NA,NA,NA,NA,NA,NA,NA,NA,sub-61246285
test,blue,b,1,NA,NA,NA,NA,NA,NA,NA,NA,NA,NA,NA,NA,NA,NA,NA,NA,sub-61246285
test,yellow,g,1,NA,NA,NA,NA,NA,NA,NA,NA,NA,NA,NA,NA,NA,NA,NA,NA,sub-61246285
NA,NA,NA,NA,NA,NA,NA,NA,NA,NA,NA,NA,NA,NA,NA,NA,NA,NA,NA,NA,sub-61246285
NA,NA,NA,NA,rot,red,1,NA,NA,NA,NA,0,0,0,NA,NA,NA,NA,NA,NA,sub-61246285
NA,NA,NA,NA,blau,yellow,0,NA,NA,NA,NA,0,1,1,NA,NA,NA,NA,NA,NA,sub-61246285
NA,NA,NA,NA,gelb,yellow,1,NA,NA,NA,NA,0,2,2,NA,NA,NA,NA,NA,NA,sub-61246285
NA,NA,NA,NA,gelb,blue,0,NA,NA,NA,NA,0,3,3,NA,NA,NA,NA,NA,NA,sub-61246285
NA,NA,NA,NA,rot,blue,0,NA,NA,NA,NA,0,4,4,NA,NA,NA,NA,NA,NA,sub-61246285
NA,NA,NA,NA,rot,red,1,NA,NA,NA,NA,0,5,5,NA,NA,NA,NA,NA,NA,sub-61246285
NA,NA,NA,NA,blau,blue,1,NA,NA,NA,NA,0,6,6,NA,NA,NA,NA,NA,NA,sub-61246285
NA,NA,NA,NA,rot,yellow,0,NA,NA,NA,NA,0,7,7,NA,NA,NA,NA,NA,NA,sub-61246285
NA,NA,NA,NA,blau,red,0,NA,NA,NA,NA,0,8,8,NA,NA,NA,NA,NA,NA,sub-61246285
NA,NA,NA,NA,gelb,red,0,NA,NA,NA,NA,0,9,9,NA,NA,NA,NA,NA,NA,sub-61246285
NA,NA,NA,NA,gelb,yellow,1,NA,NA,NA,NA,0,10,10,NA,NA,NA,NA,NA,NA,sub-61246285
NA,NA,NA,NA,blau,blue,1,NA,NA,NA,NA,0,11,11,NA,NA,NA,NA,NA,NA,sub-61246285
NA,NA,NA,NA,blau,yellow,0,NA,NA,NA,NA,1,0,12,NA,NA,NA,NA,NA,NA,sub-61246285
NA,NA,NA,NA,gelb,yellow,1,NA,NA,NA,NA,1,1,13,NA,NA,NA,NA,NA,NA,sub-61246285
NA,NA,NA,NA,gelb,blue,0,NA,NA,NA,NA,1,2,14,NA,NA,NA,NA,NA,NA,sub-61246285
NA,NA,NA,NA,gelb,red,0,NA,NA,NA,NA,1,3,15,NA,NA,NA,NA,NA,NA,sub-61246285
NA,NA,NA,NA,blau,red,0,NA,NA,NA,NA,1,4,16,NA,NA,NA,NA,NA,NA,sub-61246285
NA,NA,NA,NA,blau,blue,1,NA,NA,NA,NA,1,5,17,NA,NA,NA,NA,NA,NA,sub-61246285
NA,NA,NA,NA,rot,blue,0,NA,NA,NA,NA,1,6,18,NA,NA,NA,NA,NA,NA,sub-61246285
NA,NA,NA,NA,rot,red,1,NA,NA,NA,NA,1,7,19,NA,NA,NA,NA,NA,NA,sub-61246285
NA,NA,NA,NA,rot,yellow,0,NA,NA,NA,NA,1,8,20,NA,NA,NA,NA,NA,NA,sub-61246285
NA,NA,NA,NA,blau,blue,1,NA,NA,NA,NA,1,9,21,NA,NA,NA,NA,NA,NA,sub-61246285
NA,NA,NA,NA,rot,red,1,NA,NA,NA,NA,1,10,22,NA,NA,NA,NA,NA,NA,sub-61246285
NA,NA,NA,NA,gelb,yellow,1,NA,NA,NA,NA,1,11,23,NA,NA,NA,NA,NA,NA,sub-61246285
NA,NA,NA,NA,NA,NA,NA,NA,NA,NA,NA,NA,NA,NA,NA,NA,NA,NA,NA,NA,sub-61246285
NA,NA,NA,NA,NA,NA,NA,rot,red,r,1,NA,NA,NA,0,0,0,r,1,1.5954334,sub-61246285
NA,NA,NA,NA,NA,NA,NA,gelb,red,r,0,NA,NA,NA,0,1,1,r,1,0.9566306,sub-61246285
NA,NA,NA,NA,NA,NA,NA,rot,blue,b,0,NA,NA,NA,0,2,2,b,1,0.9378,sub-61246285
NA,NA,NA,NA,NA,NA,NA,blau,blue,b,1,NA,NA,NA,0,3,3,b,1,0.6011731,sub-61246285
NA,NA,NA,NA,NA,NA,NA,blau,blue,b,1,NA,NA,NA,0,4,4,b,1,0.6682847,sub-61246285
NA,NA,NA,NA,NA,NA,NA,gelb,yellow,g,1,NA,NA,NA,0,5,5,g,1,0.6629969,sub-61246285
NA,NA,NA,NA,NA,NA,NA,blau,yellow,g,0,NA,NA,NA,0,6,6,g,1,0.5419259,sub-61246285
NA,NA,NA,NA,NA,NA,NA,blau,red,r,0,NA,NA,NA,0,7,7,r,1,0.589319,sub-61246285
NA,NA,NA,NA,NA,NA,NA,gelb,yellow,g,1,NA,NA,NA,0,8,8,g,1,0.6252743,sub-61246285
NA,NA,NA,NA,NA,NA,NA,rot,yellow,g,0,NA,NA,NA,0,9,9,g,1,0.8167551,sub-61246285
NA,NA,NA,NA,NA,NA,NA,gelb,blue,b,0,NA,NA,NA,0,10,10,b,1,0.8483921,sub-61246285
NA,NA,NA,NA,NA,NA,NA,rot,red,r,1,NA,NA,NA,0,11,11,r,1,0.7446432,sub-61246285
NA,NA,NA,NA,NA,NA,NA,blau,blue,b,1,NA,NA,NA,1,0,12,b,1,0.8605069,sub-61246285
NA,NA,NA,NA,NA,NA,NA,gelb,blue,b,0,NA,NA,NA,1,1,13,b,1,0.6920179,sub-61246285
NA,NA,NA,NA,NA,NA,NA,rot,red,r,1,NA,NA,NA,1,2,14,r,1,0.7611616,sub-61246285
NA,NA,NA,NA,NA,NA,NA,blau,red,r,0,NA,NA,NA,1,3,15,r,1,1.1999987,sub-61246285
NA,NA,NA,NA,NA,NA,NA,gelb,yellow,g,1,NA,NA,NA,1,4,16,g,1,0.750939,sub-61246285
NA,NA,NA,NA,NA,NA,NA,gelb,yellow,g,1,NA,NA,NA,1,5,17,g,1,0.6296713,sub-61246285
NA,NA,NA,NA,NA,NA,NA,rot,red,r,1,NA,NA,NA,1,6,18,r,1,0.7355574,sub-61246285
NA,NA,NA,NA,NA,NA,NA,rot,yellow,g,0,NA,NA,NA,1,7,19,g,1,1.5243317,sub-61246285
NA,NA,NA,NA,NA,NA,NA,blau,yellow,g,0,NA,NA,NA,1,8,20,g,1,1.3417864,sub-61246285
NA,NA,NA,NA,NA,NA,NA,rot,blue,b,0,NA,NA,NA,1,9,21,b,1,0.9695086,sub-61246285
NA,NA,NA,NA,NA,NA,NA,gelb,red,r,0,NA,NA,NA,1,10,22,r,1,0.9067441,sub-61246285
NA,NA,NA,NA,NA,NA,NA,blau,blue,b,1,NA,NA,NA,1,11,23,b,1,0.7160423,sub-61246285
NA,NA,NA,NA,NA,NA,NA,gelb,yellow,g,1,NA,NA,NA,2,0,24,g,1,0.6964061,sub-61246285
NA,NA,NA,NA,NA,NA,NA,blau,yellow,g,0,NA,NA,NA,2,1,25,g,1,0.9161111,sub-61246285
NA,NA,NA,NA,NA,NA,NA,rot,red,r,1,NA,NA,NA,2,2,26,r,1,0.5599807,sub-61246285
NA,NA,NA,NA,NA,NA,NA,gelb,blue,b,0,NA,NA,NA,2,3,27,b,1,0.4847168,sub-61246285
NA,NA,NA,NA,NA,NA,NA,blau,blue,b,1,NA,NA,NA,2,4,28,b,1,0.702881,sub-61246285
NA,NA,NA,NA,NA,NA,NA,gelb,yellow,g,1,NA,NA,NA,2,5,29,g,1,0.7134394,sub-61246285
NA,NA,NA,NA,NA,NA,NA,gelb,red,r,0,NA,NA,NA,2,6,30,r,1,0.7206919,sub-61246285
NA,NA,NA,NA,NA,NA,NA,blau,blue,b,1,NA,NA,NA,2,7,31,b,1,0.5148735,sub-61246285
NA,NA,NA,NA,NA,NA,NA,rot,blue,b,0,NA,NA,NA,2,8,32,b,1,0.9404987,sub-61246285
NA,NA,NA,NA,NA,NA,NA,rot,yellow,g,0,NA,NA,NA,2,9,33,g,1,0.7628387,sub-61246285
NA,NA,NA,NA,NA,NA,NA,blau,red,r,0,NA,NA,NA,2,10,34,r,1,0.7028934,sub-61246285
NA,NA,NA,NA,NA,NA,NA,rot,red,r,1,NA,NA,NA,2,11,35,r,1,0.9935164,sub-61246285
NA,NA,NA,NA,NA,NA,NA,rot,yellow,g,0,NA,NA,NA,3,0,36,g,1,0.7554782,sub-61246285
NA,NA,NA,NA,NA,NA,NA,gelb,red,r,0,NA,NA,NA,3,1,37,r,1,0.8276381,sub-61246285
NA,NA,NA,NA,NA,NA,NA,blau,blue,b,1,NA,NA,NA,3,2,38,b,1,0.6572685,sub-61246285
NA,NA,NA,NA,NA,NA,NA,blau,yellow,g,0,NA,NA,NA,3,3,39,g,1,0.7378916,sub-61246285
NA,NA,NA,NA,NA,NA,NA,rot,blue,b,0,NA,NA,NA,3,4,40,b,1,1.125991,sub-61246285
NA,NA,NA,NA,NA,NA,NA,gelb,yellow,g,1,NA,NA,NA,3,5,41,g,1,0.6464942,sub-61246285
NA,NA,NA,NA,NA,NA,NA,blau,blue,b,1,NA,NA,NA,3,6,42,b,1,0.7677594,sub-61246285
NA,NA,NA,NA,NA,NA,NA,blau,red,r,0,NA,NA,NA,3,7,43,r,1,0.7415389,sub-61246285
NA,NA,NA,NA,NA,NA,NA,gelb,yellow,g,1,NA,NA,NA,3,8,44,g,1,0.5897217,sub-61246285
NA,NA,NA,NA,NA,NA,NA,rot,red,r,1,NA,NA,NA,3,9,45,r,1,0.6961869,sub-61246285
NA,NA,NA,NA,NA,NA,NA,gelb,blue,b,0,NA,NA,NA,3,10,46,b,1,0.7985001,sub-61246285
NA,NA,NA,NA,NA,NA,NA,rot,red,r,1,NA,NA,NA,3,11,47,r,1,0.7000409,sub-61246285
NA,NA,NA,NA,NA,NA,NA,gelb,yellow,g,1,NA,NA,NA,4,0,48,g,1,0.5478851,sub-61246285
NA,NA,NA,NA,NA,NA,NA,rot,red,r,1,NA,NA,NA,4,1,49,r,1,0.6577379,sub-61246285
NA,NA,NA,NA,NA,NA,NA,blau,yellow,g,0,NA,NA,NA,4,2,50,g,1,0.892798,sub-61246285
NA,NA,NA,NA,NA,NA,NA,gelb,yellow,g,1,NA,NA,NA,4,3,51,g,1,0.6504024,sub-61246285
NA,NA,NA,NA,NA,NA,NA,rot,yellow,g,0,NA,NA,NA,4,4,52,g,1,1.0002147,sub-61246285
NA,NA,NA,NA,NA,NA,NA,rot,blue,b,0,NA,NA,NA,4,5,53,b,1,0.7110494,sub-61246285
NA,NA,NA,NA,NA,NA,NA,gelb,red,r,0,NA,NA,NA,4,6,54,r,1,0.7057861,sub-61246285
NA,NA,NA,NA,NA,NA,NA,rot,red,r,1,NA,NA,NA,4,7,55,r,1,0.7563733,sub-61246285
NA,NA,NA,NA,NA,NA,NA,blau,blue,b,1,NA,NA,NA,4,8,56,b,1,0.5733836,sub-61246285
NA,NA,NA,NA,NA,NA,NA,blau,blue,b,1,NA,NA,NA,4,9,57,b,1,0.6513173,sub-61246285
NA,NA,NA,NA,NA,NA,NA,blau,red,r,0,NA,NA,NA,4,10,58,r,1,0.8564762,sub-61246285
NA,NA,NA,NA,NA,NA,NA,gelb,blue,b,0,NA,NA,NA,4,11,59,b,1,1.1247574,sub-61246285
NA,NA,NA,NA,NA,NA,NA,blau,blue,b,1,NA,NA,NA,5,0,60,b,1,0.6590502,sub-61246285
NA,NA,NA,NA,NA,NA,NA,blau,red,r,0,NA,NA,NA,5,1,61,r,1,0.9275928,sub-61246285
NA,NA,NA,NA,NA,NA,NA,blau,blue,b,1,NA,NA,NA,5,2,62,b,1,0.6514519,sub-61246285
NA,NA,NA,NA,NA,NA,NA,gelb,red,r,0,NA,NA,NA,5,3,63,r,1,0.8512303,sub-61246285
NA,NA,NA,NA,NA,NA,NA,blau,yellow,g,0,NA,NA,NA,5,4,64,g,1,0.7842471,sub-61246285
NA,NA,NA,NA,NA,NA,NA,gelb,blue,b,0,NA,NA,NA,5,5,65,b,1,0.7227806,sub-61246285
NA,NA,NA,NA,NA,NA,NA,rot,yellow,g,0,NA,NA,NA,5,6,66,g,1,0.8595334,sub-61246285
NA,NA,NA,NA,NA,NA,NA,gelb,yellow,g,1,NA,NA,NA,5,7,67,g,1,0.8017418,sub-61246285
NA,NA,NA,NA,NA,NA,NA,gelb,yellow,g,1,NA,NA,NA,5,8,68,g,1,0.6426952,sub-61246285
NA,NA,NA,NA,NA,NA,NA,rot,red,r,1,NA,NA,NA,5,9,69,r,1,0.6473665,sub-61246285
NA,NA,NA,NA,NA,NA,NA,rot,blue,b,0,NA,NA,NA,5,10,70,b,1,0.710939,sub-61246285
NA,NA,NA,NA,NA,NA,NA,rot,red,r,1,NA,NA,NA,5,11,71,r,1,0.8093465,sub-61246285
NA,NA,NA,NA,NA,NA,NA,gelb,yellow,g,1,NA,NA,NA,6,0,72,g,1,1.0462487,sub-61246285
NA,NA,NA,NA,NA,NA,NA,blau,blue,b,1,NA,NA,NA,6,1,73,b,1,0.7603651,sub-61246285
NA,NA,NA,NA,NA,NA,NA,blau,red,r,0,NA,NA,NA,6,2,74,r,1,1.2017271,sub-61246285
NA,NA,NA,NA,NA,NA,NA,rot,red,r,1,NA,NA,NA,6,3,75,r,1,1.0644273,sub-61246285
NA,NA,NA,NA,NA,NA,NA,blau,blue,b,1,NA,NA,NA,6,4,76,b,1,0.5886456,sub-61246285
NA,NA,NA,NA,NA,NA,NA,gelb,red,r,0,NA,NA,NA,6,5,77,r,1,1.0436134,sub-61246285
NA,NA,NA,NA,NA,NA,NA,gelb,yellow,g,1,NA,NA,NA,6,6,78,g,1,0.6310401,sub-61246285
NA,NA,NA,NA,NA,NA,NA,rot,red,r,1,NA,NA,NA,6,7,79,r,1,0.7594874,sub-61246285
NA,NA,NA,NA,NA,NA,NA,gelb,blue,b,0,NA,NA,NA,6,8,80,b,1,0.6349521,sub-61246285
NA,NA,NA,NA,NA,NA,NA,blau,yellow,g,0,NA,NA,NA,6,9,81,g,1,1.3673667,sub-61246285
NA,NA,NA,NA,NA,NA,NA,rot,yellow,g,0,NA,NA,NA,6,10,82,g,1,0.7063906,sub-61246285
NA,NA,NA,NA,NA,NA,NA,rot,blue,b,0,NA,NA,NA,6,11,83,b,1,0.8103605,sub-61246285
NA,NA,NA,NA,NA,NA,NA,rot,blue,b,0,NA,NA,NA,7,0,84,b,1,0.8317311,sub-61246285
NA,NA,NA,NA,NA,NA,NA,gelb,red,r,0,NA,NA,NA,7,1,85,r,1,0.7750271,sub-61246285
NA,NA,NA,NA,NA,NA,NA,rot,yellow,g,0,NA,NA,NA,7,2,86,g,1,1.2425977,sub-61246285
NA,NA,NA,NA,NA,NA,NA,gelb,blue,b,0,NA,NA,NA,7,3,87,b,1,0.9247868,sub-61246285
NA,NA,NA,NA,NA,NA,NA,gelb,yellow,g,1,NA,NA,NA,7,4,88,g,1,1.4666882,sub-61246285
NA,NA,NA,NA,NA,NA,NA,rot,red,r,1,NA,NA,NA,7,5,89,r,1,0.9308182,sub-61246285
NA,NA,NA,NA,NA,NA,NA,blau,red,r,0,NA,NA,NA,7,6,90,r,1,0.7758386,sub-61246285
NA,NA,NA,NA,NA,NA,NA,gelb,yellow,g,1,NA,NA,NA,7,7,91,g,1,0.5123569,sub-61246285
NA,NA,NA,NA,NA,NA,NA,blau,blue,b,1,NA,NA,NA,7,8,92,b,1,1.2572969,sub-61246285
NA,NA,NA,NA,NA,NA,NA,blau,yellow,g,0,NA,NA,NA,7,9,93,g,1,0.9153755,sub-61246285
NA,NA,NA,NA,NA,NA,NA,blau,blue,b,1,NA,NA,NA,7,10,94,b,1,0.7157396,sub-61246285
NA,NA,NA,NA,NA,NA,NA,rot,red,r,1,NA,NA,NA,7,11,95,r,1,0.7382989,sub-61246285
NA,NA,NA,NA,NA,NA,NA,blau,red,r,0,NA,NA,NA,8,0,96,r,1,0.6945916,sub-61246285
NA,NA,NA,NA,NA,NA,NA,gelb,blue,b,0,NA,NA,NA,8,1,97,b,1,0.9187912,sub-61246285
NA,NA,NA,NA,NA,NA,NA,gelb,yellow,g,1,NA,NA,NA,8,2,98,g,1,0.7424032,sub-61246285
NA,NA,NA,NA,NA,NA,NA,rot,yellow,g,0,NA,NA,NA,8,3,99,g,1,0.9271491,sub-61246285
NA,NA,NA,NA,NA,NA,NA,blau,blue,b,1,NA,NA,NA,8,4,100,b,1,0.6044981,sub-61246285
NA,NA,NA,NA,NA,NA,NA,rot,red,r,1,NA,NA,NA,8,5,101,r,1,0.7399206,sub-61246285
NA,NA,NA,NA,NA,NA,NA,gelb,red,r,0,NA,NA,NA,8,6,102,r,1,1.0343599,sub-61246285
NA,NA,NA,NA,NA,NA,NA,blau,blue,b,1,NA,NA,NA,8,7,103,b,1,0.6910631,sub-61246285
NA,NA,NA,NA,NA,NA,NA,rot,red,r,1,NA,NA,NA,8,8,104,r,1,0.7154668,sub-61246285
NA,NA,NA,NA,NA,NA,NA,rot,blue,b,0,NA,NA,NA,8,9,105,b,1,0.6292687,sub-61246285
NA,NA,NA,NA,NA,NA,NA,blau,yellow,g,0,NA,NA,NA,8,10,106,g,1,0.8028237,sub-61246285
NA,NA,NA,NA,NA,NA,NA,gelb,yellow,g,1,NA,NA,NA,8,11,107,g,1,0.9006481,sub-61246285
NA,NA,NA,NA,NA,NA,NA,rot,blue,b,0,NA,NA,NA,9,0,108,b,1,1.2003996,sub-61246285
NA,NA,NA,NA,NA,NA,NA,blau,blue,b,1,NA,NA,NA,9,1,109,b,1,0.5434601,sub-61246285
NA,NA,NA,NA,NA,NA,NA,gelb,blue,b,0,NA,NA,NA,9,2,110,b,1,0.6104973,sub-61246285
NA,NA,NA,NA,NA,NA,NA,gelb,red,r,0,NA,NA,NA,9,3,111,r,1,0.8866475,sub-61246285
NA,NA,NA,NA,NA,NA,NA,blau,blue,b,1,NA,NA,NA,9,4,112,b,1,0.6813944,sub-61246285
NA,NA,NA,NA,NA,NA,NA,rot,red,r,1,NA,NA,NA,9,5,113,r,1,0.7208536,sub-61246285
NA,NA,NA,NA,NA,NA,NA,rot,red,r,1,NA,NA,NA,9,6,114,r,1,0.8311219,sub-61246285
NA,NA,NA,NA,NA,NA,NA,gelb,yellow,g,1,NA,NA,NA,9,7,115,g,1,1.3097188,sub-61246285
NA,NA,NA,NA,NA,NA,NA,blau,yellow,g,0,NA,NA,NA,9,8,116,g,1,0.6989556,sub-61246285
NA,NA,NA,NA,NA,NA,NA,blau,red,r,0,NA,NA,NA,9,9,117,r,1,1.1426431,sub-61246285
NA,NA,NA,NA,NA,NA,NA,gelb,yellow,g,1,NA,NA,NA,9,10,118,g,1,1.0912092,sub-61246285
NA,NA,NA,NA,NA,NA,NA,rot,yellow,g,0,NA,NA,NA,9,11,119,g,1,1.5151249,sub-61246285
NA,NA,NA,NA,NA,NA,NA,NA,NA,NA,NA,NA,NA,NA,NA,NA,NA,NA,NA,NA,sub-61246285
