wordCTK,colorCTK,corrAnsCTK,congruentCTK,wordPractice,colorPractice,congruentPractice,word,color,corrAns,congruent,trials_practice.thisRepN,trials_practice.thisTrialN,trials_practice.thisN,trials_test.thisRepN,trials_test.thisTrialN,trials_test.thisN,keyResp_test_run.keys,keyResp_test_run.corr,keyResp_test_run.rt,participant
NA,NA,NA,NA,NA,NA,NA,NA,NA,NA,NA,NA,NA,NA,NA,NA,NA,NA,NA,NA,sub-13937586
NA,NA,NA,NA,NA,NA,NA,NA,NA,NA,NA,NA,NA,NA,NA,NA,NA,NA,NA,NA,sub-13937586
test,yellow,g,1,NA,NA,NA,NA,NA,NA,NA,NA,NA,NA,NA,NA,NA,NA,NA,NA,sub-13937586
test,blue,b,1,NA,NA,NA,NA,NA,NA,NA,NA,NA,NA,NA,NA,NA,NA,NA,NA,sub-13937586
test,red,r,1,NA,NA,NA,NA,NA,NA,NA,NA,NA,NA,NA,NA,NA,NA,NA,NA,sub-13937586
test,yellow,g,1,NA,NA,NA,NA,NA,NA,NA,NA,NA,NA,NA,NA,NA,NA,NA,NA,sub-13937586
test,blue,b,1,NA,NA,NA,NA,NA,NA,NA,NA,NA,NA,NA,NA,NA,NA,NA,NA,sub-13937586
test,red,r,1,NA,NA,NA,NA,NA,NA,NA,NA,NA,NA,NA,NA,NA,NA,NA,NA,sub-13937586
test,yellow,g,1,NA,NA,NA,NA,NA,NA,NA,NA,NA,NA,NA,NA,NA,NA,NA,NA,sub-13937586
test,blue,b,1,NA,NA,NA,NA,NA,NA,NA,NA,NA,NA,NA,NA,NA,NA,NA,NA,sub-13937586
test,red,r,1,NA,NA,NA,NA,NA,NA,NA,NA,NA,NA,NA,NA,NA,NA,NA,NA,sub-13937586
test,red,r,1,NA,NA,NA,NA,NA,NA,NA,NA,NA,NA,NA,NA,NA,NA,NA,NA,sub-13937586
test,blue,b,1,NA,NA,NA,NA,NA,NA,NA,NA,NA,NA,NA,NA,NA,NA,NA,NA,sub-13937586
test,yellow,g,1,NA,NA,NA,NA,NA,NA,NA,NA,NA,NA,NA,NA,NA,NA,NA,NA,sub-13937586
NA,NA,NA,NA,NA,NA,NA,NA,NA,NA,NA,NA,NA,NA,NA,NA,NA,NA,NA,NA,sub-13937586
NA,NA,NA,NA,gelb,yellow,1,NA,NA,NA,NA,0,0,0,NA,NA,NA,NA,NA,NA,sub-13937586
NA,NA,NA,NA,blau,blue,1,NA,NA,NA,NA,0,1,1,NA,NA,NA,NA,NA,NA,sub-13937586
NA,NA,NA,NA,rot,red,1,NA,NA,NA,NA,0,2,2,NA,NA,NA,NA,NA,NA,sub-13937586
NA,NA,NA,NA,rot,yellow,0,NA,NA,NA,NA,0,3,3,NA,NA,NA,NA,NA,NA,sub-13937586
NA,NA,NA,NA,blau,blue,1,NA,NA,NA,NA,0,4,4,NA,NA,NA,NA,NA,NA,sub-13937586
NA,NA,NA,NA,blau,red,0,NA,NA,NA,NA,0,5,5,NA,NA,NA,NA,NA,NA,sub-13937586
NA,NA,NA,NA,blau,yellow,0,NA,NA,NA,NA,0,6,6,NA,NA,NA,NA,NA,NA,sub-13937586
NA,NA,NA,NA,rot,blue,0,NA,NA,NA,NA,0,7,7,NA,NA,NA,NA,NA,NA,sub-13937586
NA,NA,NA,NA,gelb,blue,0,NA,NA,NA,NA,0,8,8,NA,NA,NA,NA,NA,NA,sub-13937586
NA,NA,NA,NA,gelb,yellow,1,NA,NA,NA,NA,0,9,9,NA,NA,NA,NA,NA,NA,sub-13937586
NA,NA,NA,NA,rot,red,1,NA,NA,NA,NA,0,10,10,NA,NA,NA,NA,NA,NA,sub-13937586
NA,NA,NA,NA,gelb,red,0,NA,NA,NA,NA,0,11,11,NA,NA,NA,NA,NA,NA,sub-13937586
NA,NA,NA,NA,rot,blue,0,NA,NA,NA,NA,1,0,12,NA,NA,NA,NA,NA,NA,sub-13937586
NA,NA,NA,NA,rot,red,1,NA,NA,NA,NA,1,1,13,NA,NA,NA,NA,NA,NA,sub-13937586
NA,NA,NA,NA,blau,blue,1,NA,NA,NA,NA,1,2,14,NA,NA,NA,NA,NA,NA,sub-13937586
NA,NA,NA,NA,rot,yellow,0,NA,NA,NA,NA,1,3,15,NA,NA,NA,NA,NA,NA,sub-13937586
NA,NA,NA,NA,blau,red,0,NA,NA,NA,NA,1,4,16,NA,NA,NA,NA,NA,NA,sub-13937586
NA,NA,NA,NA,rot,red,1,NA,NA,NA,NA,1,5,17,NA,NA,NA,NA,NA,NA,sub-13937586
NA,NA,NA,NA,gelb,blue,0,NA,NA,NA,NA,1,6,18,NA,NA,NA,NA,NA,NA,sub-13937586
NA,NA,NA,NA,blau,yellow,0,NA,NA,NA,NA,1,7,19,NA,NA,NA,NA,NA,NA,sub-13937586
NA,NA,NA,NA,gelb,yellow,1,NA,NA,NA,NA,1,8,20,NA,NA,NA,NA,NA,NA,sub-13937586
NA,NA,NA,NA,gelb,yellow,1,NA,NA,NA,NA,1,9,21,NA,NA,NA,NA,NA,NA,sub-13937586
NA,NA,NA,NA,blau,blue,1,NA,NA,NA,NA,1,10,22,NA,NA,NA,NA,NA,NA,sub-13937586
NA,NA,NA,NA,gelb,red,0,NA,NA,NA,NA,1,11,23,NA,NA,NA,NA,NA,NA,sub-13937586
NA,NA,NA,NA,NA,NA,NA,NA,NA,NA,NA,NA,NA,NA,NA,NA,NA,NA,NA,NA,sub-13937586
NA,NA,NA,NA,NA,NA,NA,blau,yellow,g,0,NA,NA,NA,0,0,0,g,1,0.73323989999999994,sub-13937586
NA,NA,NA,NA,NA,NA,NA,rot,yellow,g,0,NA,NA,NA,0,1,1,g,1,1.004479,sub-13937586
NA,NA,NA,NA,NA,NA,NA,gelb,red,r,0,NA,NA,NA,0,2,2,r,1,0.9637251,sub-13937586
NA,NA,NA,NA,NA,NA,NA,blau,blue,b,1,NA,NA,NA,0,3,3,b,1,0.6557303,sub-13937586
NA,NA,NA,NA,NA,NA,NA,gelb,yellow,g,1,NA,NA,NA,0,4,4,g,1,0.5780732,sub-13937586
NA,NA,NA,NA,NA,NA,NA,blau,blue,b,1,NA,NA,NA,0,5,5,b,1,0.6858938,sub-13937586
NA,NA,NA,NA,NA,NA,NA,rot,red,r,1,NA,NA,NA,0,6,6,r,1,0.7357071,sub-13937586
NA,NA,NA,NA,NA,NA,NA,gelb,blue,b,0,NA,NA,NA,0,7,7,b,1,0.5789908,sub-13937586
NA,NA,NA,NA,NA,NA,NA,gelb,yellow,g,1,NA,NA,NA,0,8,8,g,1,0.7921794,sub-13937586
NA,NA,NA,NA,NA,NA,NA,rot,blue,b,0,NA,NA,NA,0,9,9,b,1,0.7832563,sub-13937586
NA,NA,NA,NA,NA,NA,NA,blau,red,r,0,NA,NA,NA,0,10,10,r,1,0.7843335,sub-13937586
NA,NA,NA,NA,NA,NA,NA,rot,red,r,1,NA,NA,NA,0,11,11,r,1,0.6598369,sub-13937586
NA,NA,NA,NA,NA,NA,NA,blau,blue,b,1,NA,NA,NA,1,0,12,b,1,0.6028247,sub-13937586
NA,NA,NA,NA,NA,NA,NA,blau,red,r,0,NA,NA,NA,1,1,13,r,1,0.7436313,sub-13937586
NA,NA,NA,NA,NA,NA,NA,rot,blue,b,0,NA,NA,NA,1,2,14,b,1,0.528191,sub-13937586
NA,NA,NA,NA,NA,NA,NA,rot,yellow,g,0,NA,NA,NA,1,3,15,g,1,0.6670052,sub-13937586
NA,NA,NA,NA,NA,NA,NA,rot,red,r,1,NA,NA,NA,1,4,16,r,1,0.6033707,sub-13937586
NA,NA,NA,NA,NA,NA,NA,rot,red,r,1,NA,NA,NA,1,5,17,r,1,0.6005113,sub-13937586
NA,NA,NA,NA,NA,NA,NA,gelb,blue,b,0,NA,NA,NA,1,6,18,b,1,0.4379721,sub-13937586
NA,NA,NA,NA,NA,NA,NA,blau,blue,b,1,NA,NA,NA,1,7,19,b,1,0.7755484,sub-13937586
NA,NA,NA,NA,NA,NA,NA,gelb,yellow,g,1,NA,NA,NA,1,8,20,g,1,0.8836558,sub-13937586
NA,NA,NA,NA,NA,NA,NA,gelb,yellow,g,1,NA,NA,NA,1,9,21,g,1,0.49741,sub-13937586
NA,NA,NA,NA,NA,NA,NA,gelb,red,r,0,NA,NA,NA,1,10,22,r,1,0.6104559,sub-13937586
NA,NA,NA,NA,NA,NA,NA,blau,yellow,g,0,NA,NA,NA,1,11,23,b,0,0.6423002,sub-13937586
NA,NA,NA,NA,NA,NA,NA,rot,red,r,1,NA,NA,NA,2,0,24,r,1,0.5351588,sub-13937586
NA,NA,NA,NA,NA,NA,NA,blau,red,r,0,NA,NA,NA,2,1,25,r,1,0.809365,sub-13937586
NA,NA,NA,NA,NA,NA,NA,gelb,yellow,g,1,NA,NA,NA,2,2,26,g,1,0.5632672,sub-13937586
NA,NA,NA,NA,NA,NA,NA,gelb,yellow,g,1,NA,NA,NA,2,3,27,g,1,0.5258395,sub-13937586
NA,NA,NA,NA,NA,NA,NA,blau,yellow,g,0,NA,NA,NA,2,4,28,g,1,0.744802,sub-13937586
NA,NA,NA,NA,NA,NA,NA,blau,blue,b,1,NA,NA,NA,2,5,29,b,1,0.5678494,sub-13937586
NA,NA,NA,NA,NA,NA,NA,gelb,blue,b,0,NA,NA,NA,2,6,30,b,1,0.7619156,sub-13937586
NA,NA,NA,NA,NA,NA,NA,rot,blue,b,0,NA,NA,NA,2,7,31,b,1,0.4492497,sub-13937586
NA,NA,NA,NA,NA,NA,NA,rot,yellow,g,0,NA,NA,NA,2,8,32,g,1,0.8655625,sub-13937586
NA,NA,NA,NA,NA,NA,NA,blau,blue,b,1,NA,NA,NA,2,9,33,b,1,0.5351212,sub-13937586
NA,NA,NA,NA,NA,NA,NA,rot,red,r,1,NA,NA,NA,2,10,34,r,1,0.600775,sub-13937586
NA,NA,NA,NA,NA,NA,NA,gelb,red,r,0,NA,NA,NA,2,11,35,r,1,0.6909218,sub-13937586
NA,NA,NA,NA,NA,NA,NA,gelb,yellow,g,1,NA,NA,NA,3,0,36,g,1,1.2204787,sub-13937586
NA,NA,NA,NA,NA,NA,NA,blau,yellow,g,0,NA,NA,NA,3,1,37,g,1,0.5309354,sub-13937586
NA,NA,NA,NA,NA,NA,NA,gelb,yellow,g,1,NA,NA,NA,3,2,38,g,1,0.4776062,sub-13937586
NA,NA,NA,NA,NA,NA,NA,blau,blue,b,1,NA,NA,NA,3,3,39,b,1,0.5536676,sub-13937586
NA,NA,NA,NA,NA,NA,NA,blau,blue,b,1,NA,NA,NA,3,4,40,b,1,0.4012249,sub-13937586
NA,NA,NA,NA,NA,NA,NA,rot,red,r,1,NA,NA,NA,3,5,41,r,1,0.5290348,sub-13937586
NA,NA,NA,NA,NA,NA,NA,rot,blue,b,0,NA,NA,NA,3,6,42,b,1,0.5621083,sub-13937586
NA,NA,NA,NA,NA,NA,NA,blau,red,r,0,NA,NA,NA,3,7,43,r,1,1.008976,sub-13937586
NA,NA,NA,NA,NA,NA,NA,rot,yellow,g,0,NA,NA,NA,3,8,44,g,1,0.5640003,sub-13937586
NA,NA,NA,NA,NA,NA,NA,rot,red,r,1,NA,NA,NA,3,9,45,r,1,0.5402989,sub-13937586
NA,NA,NA,NA,NA,NA,NA,gelb,red,r,0,NA,NA,NA,3,10,46,r,1,0.6864409,sub-13937586
NA,NA,NA,NA,NA,NA,NA,gelb,blue,b,0,NA,NA,NA,3,11,47,b,1,0.4548617,sub-13937586
NA,NA,NA,NA,NA,NA,NA,blau,blue,b,1,NA,NA,NA,4,0,48,b,1,0.4218018,sub-13937586
NA,NA,NA,NA,NA,NA,NA,rot,red,r,1,NA,NA,NA,4,1,49,r,1,0.4315265,sub-13937586
NA,NA,NA,NA,NA,NA,NA,blau,red,r,0,NA,NA,NA,4,2,50,r,1,0.5777534,sub-13937586
NA,NA,NA,NA,NA,NA,NA,gelb,yellow,g,1,NA,NA,NA,4,3,51,g,1,0.5405261,sub-13937586
NA,NA,NA,NA,NA,NA,NA,gelb,yellow,g,1,NA,NA,NA,4,4,52,g,1,0.4842663,sub-13937586
NA,NA,NA,NA,NA,NA,NA,gelb,blue,b,0,NA,NA,NA,4,5,53,b,1,0.5834513,sub-13937586
NA,NA,NA,NA,NA,NA,NA,blau,yellow,g,0,NA,NA,NA,4,6,54,r,0,0.935802,sub-13937586
NA,NA,NA,NA,NA,NA,NA,blau,blue,b,1,NA,NA,NA,4,7,55,b,1,0.5915902,sub-13937586
NA,NA,NA,NA,NA,NA,NA,rot,blue,b,0,NA,NA,NA,4,8,56,b,1,0.424867,sub-13937586
NA,NA,NA,NA,NA,NA,NA,rot,red,r,1,NA,NA,NA,4,9,57,r,1,0.5703152,sub-13937586
NA,NA,NA,NA,NA,NA,NA,gelb,red,r,0,NA,NA,NA,4,10,58,r,1,0.5130203,sub-13937586
NA,NA,NA,NA,NA,NA,NA,rot,yellow,g,0,NA,NA,NA,4,11,59,g,1,1.7077258,sub-13937586
NA,NA,NA,NA,NA,NA,NA,blau,blue,b,1,NA,NA,NA,5,0,60,b,1,0.6999682,sub-13937586
NA,NA,NA,NA,NA,NA,NA,gelb,red,r,0,NA,NA,NA,5,1,61,r,1,0.5176051,sub-13937586
NA,NA,NA,NA,NA,NA,NA,rot,red,r,1,NA,NA,NA,5,2,62,r,1,0.5037754,sub-13937586
NA,NA,NA,NA,NA,NA,NA,gelb,blue,b,0,NA,NA,NA,5,3,63,b,1,0.487815,sub-13937586
NA,NA,NA,NA,NA,NA,NA,blau,yellow,g,0,NA,NA,NA,5,4,64,g,1,0.5827115,sub-13937586
NA,NA,NA,NA,NA,NA,NA,rot,yellow,g,0,NA,NA,NA,5,5,65,g,1,0.4865598,sub-13937586
NA,NA,NA,NA,NA,NA,NA,rot,red,r,1,NA,NA,NA,5,6,66,r,1,0.5419939,sub-13937586
NA,NA,NA,NA,NA,NA,NA,gelb,yellow,g,1,NA,NA,NA,5,7,67,g,1,1.3237672,sub-13937586
NA,NA,NA,NA,NA,NA,NA,blau,red,r,0,NA,NA,NA,5,8,68,r,1,0.5085244,sub-13937586
NA,NA,NA,NA,NA,NA,NA,gelb,yellow,g,1,NA,NA,NA,5,9,69,g,1,0.5715655,sub-13937586
NA,NA,NA,NA,NA,NA,NA,rot,blue,b,0,NA,NA,NA,5,10,70,b,1,0.5625206,sub-13937586
NA,NA,NA,NA,NA,NA,NA,blau,blue,b,1,NA,NA,NA,5,11,71,b,1,0.3930046,sub-13937586
NA,NA,NA,NA,NA,NA,NA,gelb,yellow,g,1,NA,NA,NA,6,0,72,g,1,0.5265195,sub-13937586
NA,NA,NA,NA,NA,NA,NA,blau,yellow,g,0,NA,NA,NA,6,1,73,g,1,0.5412305,sub-13937586
NA,NA,NA,NA,NA,NA,NA,rot,yellow,g,0,NA,NA,NA,6,2,74,g,1,0.4390302,sub-13937586
NA,NA,NA,NA,NA,NA,NA,rot,red,r,1,NA,NA,NA,6,3,75,r,1,0.4500603,sub-13937586
NA,NA,NA,NA,NA,NA,NA,gelb,red,r,0,NA,NA,NA,6,4,76,r,1,0.6228428,sub-13937586
NA,NA,NA,NA,NA,NA,NA,blau,red,r,0,NA,NA,NA,6,5,77,r,1,0.5577713,sub-13937586
NA,NA,NA,NA,NA,NA,NA,gelb,blue,b,0,NA,NA,NA,6,6,78,b,1,0.9241605,sub-13937586
NA,NA,NA,NA,NA,NA,NA,blau,blue,b,1,NA,NA,NA,6,7,79,b,1,0.4718994,sub-13937586
NA,NA,NA,NA,NA,NA,NA,rot,red,r,1,NA,NA,NA,6,8,80,r,1,0.7158914,sub-13937586
NA,NA,NA,NA,NA,NA,NA,gelb,yellow,g,1,NA,NA,NA,6,9,81,g,1,0.6159879,sub-13937586
NA,NA,NA,NA,NA,NA,NA,blau,blue,b,1,NA,NA,NA,6,10,82,b,1,0.5465115,sub-13937586
NA,NA,NA,NA,NA,NA,NA,rot,blue,b,0,NA,NA,NA,6,11,83,b,1,0.5576127,sub-13937586
NA,NA,NA,NA,NA,NA,NA,rot,blue,b,0,NA,NA,NA,7,0,84,b,1,0.4600836,sub-13937586
NA,NA,NA,NA,NA,NA,NA,blau,red,r,0,NA,NA,NA,7,1,85,r,1,0.6173509,sub-13937586
NA,NA,NA,NA,NA,NA,NA,blau,blue,b,1,NA,NA,NA,7,2,86,b,1,0.5303373,sub-13937586
NA,NA,NA,NA,NA,NA,NA,gelb,red,r,0,NA,NA,NA,7,3,87,r,1,0.6888953,sub-13937586
NA,NA,NA,NA,NA,NA,NA,rot,red,r,1,NA,NA,NA,7,4,88,r,1,0.4269948,sub-13937586
NA,NA,NA,NA,NA,NA,NA,rot,yellow,g,0,NA,NA,NA,7,5,89,g,1,0.725602,sub-13937586
NA,NA,NA,NA,NA,NA,NA,gelb,yellow,g,1,NA,NA,NA,7,6,90,g,1,0.4374818,sub-13937586
NA,NA,NA,NA,NA,NA,NA,gelb,yellow,g,1,NA,NA,NA,7,7,91,g,1,0.5118549,sub-13937586
NA,NA,NA,NA,NA,NA,NA,blau,yellow,g,0,NA,NA,NA,7,8,92,g,1,0.6963179,sub-13937586
NA,NA,NA,NA,NA,NA,NA,gelb,blue,b,0,NA,NA,NA,7,9,93,b,1,0.3497649,sub-13937586
NA,NA,NA,NA,NA,NA,NA,blau,blue,b,1,NA,NA,NA,7,10,94,b,1,0.3697931,sub-13937586
NA,NA,NA,NA,NA,NA,NA,rot,red,r,1,NA,NA,NA,7,11,95,r,1,0.5909944,sub-13937586
NA,NA,NA,NA,NA,NA,NA,rot,red,r,1,NA,NA,NA,8,0,96,r,1,0.3980579,sub-13937586
NA,NA,NA,NA,NA,NA,NA,gelb,yellow,g,1,NA,NA,NA,8,1,97,g,1,0.5310745,sub-13937586
NA,NA,NA,NA,NA,NA,NA,blau,blue,b,1,NA,NA,NA,8,2,98,b,1,0.450687,sub-13937586
NA,NA,NA,NA,NA,NA,NA,blau,red,r,0,NA,NA,NA,8,3,99,r,1,0.8488917,sub-13937586
NA,NA,NA,NA,NA,NA,NA,rot,yellow,g,0,NA,NA,NA,8,4,100,g,1,0.8499359,sub-13937586
NA,NA,NA,NA,NA,NA,NA,gelb,red,r,0,NA,NA,NA,8,5,101,r,1,0.7286115,sub-13937586
NA,NA,NA,NA,NA,NA,NA,gelb,yellow,g,1,NA,NA,NA,8,6,102,g,1,0.5595087,sub-13937586
NA,NA,NA,NA,NA,NA,NA,blau,yellow,g,0,NA,NA,NA,8,7,103,g,1,0.8125125,sub-13937586
NA,NA,NA,NA,NA,NA,NA,rot,red,r,1,NA,NA,NA,8,8,104,r,1,0.4578366,sub-13937586
NA,NA,NA,NA,NA,NA,NA,gelb,blue,b,0,NA,NA,NA,8,9,105,b,1,0.4003765,sub-13937586
NA,NA,NA,NA,NA,NA,NA,rot,blue,b,0,NA,NA,NA,8,10,106,b,1,0.4574479,sub-13937586
NA,NA,NA,NA,NA,NA,NA,blau,blue,b,1,NA,NA,NA,8,11,107,b,1,0.3735896,sub-13937586
NA,NA,NA,NA,NA,NA,NA,rot,yellow,g,0,NA,NA,NA,9,0,108,g,1,0.7835068,sub-13937586
NA,NA,NA,NA,NA,NA,NA,blau,yellow,g,0,NA,NA,NA,9,1,109,g,1,0.4567465,sub-13937586
NA,NA,NA,NA,NA,NA,NA,gelb,red,r,0,NA,NA,NA,9,2,110,r,1,0.5374727,sub-13937586
NA,NA,NA,NA,NA,NA,NA,rot,blue,b,0,NA,NA,NA,9,3,111,b,1,0.3502879,sub-13937586
NA,NA,NA,NA,NA,NA,NA,gelb,blue,b,0,NA,NA,NA,9,4,112,b,1,0.4760231,sub-13937586
NA,NA,NA,NA,NA,NA,NA,blau,blue,b,1,NA,NA,NA,9,5,113,b,1,0.3525183,sub-13937586
NA,NA,NA,NA,NA,NA,NA,gelb,yellow,g,1,NA,NA,NA,9,6,114,g,1,0.5903807,sub-13937586
NA,NA,NA,NA,NA,NA,NA,blau,blue,b,1,NA,NA,NA,9,7,115,b,1,0.4951513,sub-13937586
NA,NA,NA,NA,NA,NA,NA,rot,red,r,1,NA,NA,NA,9,8,116,g,0,0.5223067,sub-13937586
NA,NA,NA,NA,NA,NA,NA,rot,red,r,1,NA,NA,NA,9,9,117,r,1,0.4473202,sub-13937586
NA,NA,NA,NA,NA,NA,NA,blau,red,r,0,NA,NA,NA,9,10,118,r,1,0.3985125,sub-13937586
NA,NA,NA,NA,NA,NA,NA,gelb,yellow,g,1,NA,NA,NA,9,11,119,g,1,0.6078718,sub-13937586
NA,NA,NA,NA,NA,NA,NA,NA,NA,NA,NA,NA,NA,NA,NA,NA,NA,NA,NA,NA,sub-13937586
