wordCTK,colorCTK,corrAnsCTK,congruentCTK,wordPractice,colorPractice,congruentPractice,word,color,corrAns,congruent,trials_practice.thisRepN,trials_practice.thisTrialN,trials_practice.thisN,trials_test.thisRepN,trials_test.thisTrialN,trials_test.thisN,keyResp_test_run.keys,keyResp_test_run.corr,keyResp_test_run.rt,participant
NA,NA,NA,NA,NA,NA,NA,NA,NA,NA,NA,NA,NA,NA,NA,NA,NA,NA,NA,NA,sub-55530400
NA,NA,NA,NA,NA,NA,NA,NA,NA,NA,NA,NA,NA,NA,NA,NA,NA,NA,NA,NA,sub-55530400
test,blue,b,1,NA,NA,NA,NA,NA,NA,NA,NA,NA,NA,NA,NA,NA,NA,NA,NA,sub-55530400
test,red,r,1,NA,NA,NA,NA,NA,NA,NA,NA,NA,NA,NA,NA,NA,NA,NA,NA,sub-55530400
test,yellow,g,1,NA,NA,NA,NA,NA,NA,NA,NA,NA,NA,NA,NA,NA,NA,NA,NA,sub-55530400
test,blue,b,1,NA,NA,NA,NA,NA,NA,NA,NA,NA,NA,NA,NA,NA,NA,NA,NA,sub-55530400
test,yellow,g,1,NA,NA,NA,NA,NA,NA,NA,NA,NA,NA,NA,NA,NA,NA,NA,NA,sub-55530400
test,red,r,1,NA,NA,NA,NA,NA,NA,NA,NA,NA,NA,NA,NA,NA,NA,NA,NA,sub-55530400
test,blue,b,1,NA,NA,NA,NA,NA,NA,NA,NA,NA,NA,NA,NA,NA,NA,NA,NA,sub-55530400
test,red,r,1,NA,NA,NA,NA,NA,NA,NA,NA,NA,NA,NA,NA,NA,NA,NA,NA,sub-55530400
test,yellow,g,1,NA,NA,NA,NA,NA,NA,NA,NA,NA,NA,NA,NA,NA,NA,NA,NA,sub-55530400
test,red,r,1,NA,NA,NA,NA,NA,NA,NA,NA,NA,NA,NA,NA,NA,NA,NA,NA,sub-55530400
test,yellow,g,1,NA,NA,NA,NA,NA,NA,NA,NA,NA,NA,NA,NA,NA,NA,NA,NA,sub-55530400
test,blue,b,1,NA,NA,NA,NA,NA,NA,NA,NA,NA,NA,NA,NA,NA,NA,NA,NA,sub-55530400
NA,NA,NA,NA,NA,NA,NA,NA,NA,NA,NA,NA,NA,NA,NA,NA,NA,NA,NA,NA,sub-55530400
NA,NA,NA,NA,blau,blue,1,NA,NA,NA,NA,0,0,0,NA,NA,NA,NA,NA,NA,sub-55530400
NA,NA,NA,NA,rot,red,1,NA,NA,NA,NA,0,1,1,NA,NA,NA,NA,NA,NA,sub-55530400
NA,NA,NA,NA,gelb,blue,0,NA,NA,NA,NA,0,2,2,NA,NA,NA,NA,NA,NA,sub-55530400
NA,NA,NA,NA,blau,blue,1,NA,NA,NA,NA,0,3,3,NA,NA,NA,NA,NA,NA,sub-55530400
NA,NA,NA,NA,rot,yellow,0,NA,NA,NA,NA,0,4,4,NA,NA,NA,NA,NA,NA,sub-55530400
NA,NA,NA,NA,blau,red,0,NA,NA,NA,NA,0,5,5,NA,NA,NA,NA,NA,NA,sub-55530400
NA,NA,NA,NA,gelb,red,0,NA,NA,NA,NA,0,6,6,NA,NA,NA,NA,NA,NA,sub-55530400
NA,NA,NA,NA,gelb,yellow,1,NA,NA,NA,NA,0,7,7,NA,NA,NA,NA,NA,NA,sub-55530400
NA,NA,NA,NA,rot,blue,0,NA,NA,NA,NA,0,8,8,NA,NA,NA,NA,NA,NA,sub-55530400
NA,NA,NA,NA,rot,red,1,NA,NA,NA,NA,0,9,9,NA,NA,NA,NA,NA,NA,sub-55530400
NA,NA,NA,NA,gelb,yellow,1,NA,NA,NA,NA,0,10,10,NA,NA,NA,NA,NA,NA,sub-55530400
NA,NA,NA,NA,blau,yellow,0,NA,NA,NA,NA,0,11,11,NA,NA,NA,NA,NA,NA,sub-55530400
NA,NA,NA,NA,rot,yellow,0,NA,NA,NA,NA,1,0,12,NA,NA,NA,NA,NA,NA,sub-55530400
NA,NA,NA,NA,gelb,yellow,1,NA,NA,NA,NA,1,1,13,NA,NA,NA,NA,NA,NA,sub-55530400
NA,NA,NA,NA,blau,blue,1,NA,NA,NA,NA,1,2,14,NA,NA,NA,NA,NA,NA,sub-55530400
NA,NA,NA,NA,rot,blue,0,NA,NA,NA,NA,1,3,15,NA,NA,NA,NA,NA,NA,sub-55530400
NA,NA,NA,NA,blau,red,0,NA,NA,NA,NA,1,4,16,NA,NA,NA,NA,NA,NA,sub-55530400
NA,NA,NA,NA,gelb,yellow,1,NA,NA,NA,NA,1,5,17,NA,NA,NA,NA,NA,NA,sub-55530400
NA,NA,NA,NA,rot,red,1,NA,NA,NA,NA,1,6,18,NA,NA,NA,NA,NA,NA,sub-55530400
NA,NA,NA,NA,rot,red,1,NA,NA,NA,NA,1,7,19,NA,NA,NA,NA,NA,NA,sub-55530400
NA,NA,NA,NA,gelb,blue,0,NA,NA,NA,NA,1,8,20,NA,NA,NA,NA,NA,NA,sub-55530400
NA,NA,NA,NA,blau,blue,1,NA,NA,NA,NA,1,9,21,NA,NA,NA,NA,NA,NA,sub-55530400
NA,NA,NA,NA,blau,yellow,0,NA,NA,NA,NA,1,10,22,NA,NA,NA,NA,NA,NA,sub-55530400
NA,NA,NA,NA,gelb,red,0,NA,NA,NA,NA,1,11,23,NA,NA,NA,NA,NA,NA,sub-55530400
NA,NA,NA,NA,NA,NA,NA,NA,NA,NA,NA,NA,NA,NA,NA,NA,NA,NA,NA,NA,sub-55530400
NA,NA,NA,NA,NA,NA,NA,gelb,yellow,g,1,NA,NA,NA,0,0,0,g,1,2.29732510000008,sub-55530400
NA,NA,NA,NA,NA,NA,NA,rot,red,r,1,NA,NA,NA,0,1,1,r,1,1.0943317999999636,sub-55530400
NA,NA,NA,NA,NA,NA,NA,blau,blue,b,1,NA,NA,NA,0,2,2,b,1,1.043391100000008,sub-55530400
NA,NA,NA,NA,NA,NA,NA,rot,blue,b,0,NA,NA,NA,0,3,3,b,1,1.6566636000000017,sub-55530400
NA,NA,NA,NA,NA,NA,NA,blau,red,r,0,NA,NA,NA,0,4,4,r,1,1.2359650000000784,sub-55530400
NA,NA,NA,NA,NA,NA,NA,gelb,yellow,g,1,NA,NA,NA,0,5,5,g,1,1.6024912999998833,sub-55530400
NA,NA,NA,NA,NA,NA,NA,rot,red,r,1,NA,NA,NA,0,6,6,r,1,1.3044726000000535,sub-55530400
NA,NA,NA,NA,NA,NA,NA,blau,blue,b,1,NA,NA,NA,0,7,7,b,1,1.2376914999999826,sub-55530400
NA,NA,NA,NA,NA,NA,NA,rot,yellow,g,0,NA,NA,NA,0,8,8,g,1,1.9119861000001492,sub-55530400
NA,NA,NA,NA,NA,NA,NA,blau,yellow,g,0,NA,NA,NA,0,9,9,g,1,1.7023757999997997,sub-55530400
NA,NA,NA,NA,NA,NA,NA,gelb,red,r,0,NA,NA,NA,0,10,10,r,1,1.5043827000001784,sub-55530400
NA,NA,NA,NA,NA,NA,NA,gelb,blue,b,0,NA,NA,NA,0,11,11,b,1,1.4925936999998155,sub-55530400
NA,NA,NA,NA,NA,NA,NA,blau,blue,b,1,NA,NA,NA,1,0,12,b,1,1.2906530000000205,sub-55530400
NA,NA,NA,NA,NA,NA,NA,rot,blue,b,0,NA,NA,NA,1,1,13,b,1,1.4123399000000063,sub-55530400
NA,NA,NA,NA,NA,NA,NA,gelb,yellow,g,1,NA,NA,NA,1,2,14,g,1,1.6093004000001656,sub-55530400
NA,NA,NA,NA,NA,NA,NA,rot,red,r,1,NA,NA,NA,1,3,15,r,1,2.192997299999888,sub-55530400
NA,NA,NA,NA,NA,NA,NA,blau,red,r,0,NA,NA,NA,1,4,16,r,1,1.4869591000001492,sub-55530400
NA,NA,NA,NA,NA,NA,NA,gelb,blue,b,0,NA,NA,NA,1,5,17,b,1,1.433473000000049,sub-55530400
NA,NA,NA,NA,NA,NA,NA,blau,blue,b,1,NA,NA,NA,1,6,18,b,1,1.4118227999999815,sub-55530400
NA,NA,NA,NA,NA,NA,NA,gelb,yellow,g,1,NA,NA,NA,1,7,19,g,1,1.5244172000000162,sub-55530400
NA,NA,NA,NA,NA,NA,NA,rot,red,r,1,NA,NA,NA,1,8,20,r,1,1.1959712000000309,sub-55530400
NA,NA,NA,NA,NA,NA,NA,blau,yellow,g,0,NA,NA,NA,1,9,21,g,1,1.5453094000001784,sub-55530400
NA,NA,NA,NA,NA,NA,NA,rot,yellow,g,0,NA,NA,NA,1,10,22,g,1,1.3691948999999113,sub-55530400
NA,NA,NA,NA,NA,NA,NA,gelb,red,r,0,NA,NA,NA,1,11,23,r,1,1.3157633999999234,sub-55530400
NA,NA,NA,NA,NA,NA,NA,rot,red,r,1,NA,NA,NA,2,0,24,r,1,1.20687810000004,sub-55530400
NA,NA,NA,NA,NA,NA,NA,blau,yellow,g,0,NA,NA,NA,2,1,25,g,1,1.3575707999998483,sub-55530400
NA,NA,NA,NA,NA,NA,NA,gelb,yellow,g,1,NA,NA,NA,2,2,26,g,1,1.1650924000000489,sub-55530400
NA,NA,NA,NA,NA,NA,NA,rot,red,r,1,NA,NA,NA,2,3,27,r,1,1.1773894999998902,sub-55530400
NA,NA,NA,NA,NA,NA,NA,rot,yellow,g,0,NA,NA,NA,2,4,28,g,1,1.4622001000000182,sub-55530400
NA,NA,NA,NA,NA,NA,NA,rot,blue,b,0,NA,NA,NA,2,5,29,b,1,1.243918800000074,sub-55530400
NA,NA,NA,NA,NA,NA,NA,blau,red,r,0,NA,NA,NA,2,6,30,r,1,1.32816959999991,sub-55530400
NA,NA,NA,NA,NA,NA,NA,blau,blue,b,1,NA,NA,NA,2,7,31,b,1,1.1250010999999631,sub-55530400
NA,NA,NA,NA,NA,NA,NA,gelb,yellow,g,1,NA,NA,NA,2,8,32,g,1,1.4495352000001276,sub-55530400
NA,NA,NA,NA,NA,NA,NA,gelb,red,r,0,NA,NA,NA,2,9,33,r,1,1.2517275000000154,sub-55530400
NA,NA,NA,NA,NA,NA,NA,gelb,blue,b,0,NA,NA,NA,2,10,34,b,1,1.1695695999999316,sub-55530400
NA,NA,NA,NA,NA,NA,NA,blau,blue,b,1,NA,NA,NA,2,11,35,b,1,0.821849899999961,sub-55530400
NA,NA,NA,NA,NA,NA,NA,rot,yellow,g,0,NA,NA,NA,3,0,36,g,1,1.1772504999999,sub-55530400
NA,NA,NA,NA,NA,NA,NA,rot,blue,b,0,NA,NA,NA,3,1,37,b,1,1.260067799999888,sub-55530400
NA,NA,NA,NA,NA,NA,NA,gelb,yellow,g,1,NA,NA,NA,3,2,38,g,1,1.4666339999998854,sub-55530400
NA,NA,NA,NA,NA,NA,NA,blau,yellow,g,0,NA,NA,NA,3,3,39,g,1,1.819149199999856,sub-55530400
NA,NA,NA,NA,NA,NA,NA,blau,red,r,0,NA,NA,NA,3,4,40,r,1,1.4144873000000189,sub-55530400
NA,NA,NA,NA,NA,NA,NA,blau,blue,b,1,NA,NA,NA,3,5,41,b,1,1.0492894999999862,sub-55530400
NA,NA,NA,NA,NA,NA,NA,gelb,red,r,0,NA,NA,NA,3,6,42,r,1,1.2970018000000891,sub-55530400
NA,NA,NA,NA,NA,NA,NA,gelb,yellow,g,1,NA,NA,NA,3,7,43,g,1,1.5571308000000954,sub-55530400
NA,NA,NA,NA,NA,NA,NA,rot,red,r,1,NA,NA,NA,3,8,44,r,1,1.1212761000001592,sub-55530400
NA,NA,NA,NA,NA,NA,NA,blau,blue,b,1,NA,NA,NA,3,9,45,b,1,0.95209449999993,sub-55530400
NA,NA,NA,NA,NA,NA,NA,rot,red,r,1,NA,NA,NA,3,10,46,r,1,1.0919008999999278,sub-55530400
NA,NA,NA,NA,NA,NA,NA,gelb,blue,b,0,NA,NA,NA,3,11,47,b,1,1.102417800000012,sub-55530400
NA,NA,NA,NA,NA,NA,NA,rot,red,r,1,NA,NA,NA,4,0,48,r,1,1.4520394000001031,sub-55530400
NA,NA,NA,NA,NA,NA,NA,rot,yellow,g,0,NA,NA,NA,4,1,49,g,1,1.125227999999879,sub-55530400
NA,NA,NA,NA,NA,NA,NA,gelb,yellow,g,1,NA,NA,NA,4,2,50,g,1,1.2305739000000813,sub-55530400
NA,NA,NA,NA,NA,NA,NA,rot,blue,b,0,NA,NA,NA,4,3,51,b,1,1.0395838999997975,sub-55530400
NA,NA,NA,NA,NA,NA,NA,gelb,yellow,g,1,NA,NA,NA,4,4,52,g,1,1.1718935000001238,sub-55530400
NA,NA,NA,NA,NA,NA,NA,rot,red,r,1,NA,NA,NA,4,5,53,r,1,1.0661497000000963,sub-55530400
NA,NA,NA,NA,NA,NA,NA,blau,blue,b,1,NA,NA,NA,4,6,54,b,1,1.293684600000006,sub-55530400
NA,NA,NA,NA,NA,NA,NA,blau,blue,b,1,NA,NA,NA,4,7,55,b,1,0.711757900000066,sub-55530400
NA,NA,NA,NA,NA,NA,NA,blau,red,r,0,NA,NA,NA,4,8,56,r,1,1.1848236000000725,sub-55530400
NA,NA,NA,NA,NA,NA,NA,gelb,blue,b,0,NA,NA,NA,4,9,57,b,1,1.9670743000001496,sub-55530400
NA,NA,NA,NA,NA,NA,NA,blau,yellow,g,0,NA,NA,NA,4,10,58,g,1,1.6360984000000371,sub-55530400
NA,NA,NA,NA,NA,NA,NA,gelb,red,r,0,NA,NA,NA,4,11,59,r,1,1.2479556000000684,sub-55530400
NA,NA,NA,NA,NA,NA,NA,gelb,blue,b,0,NA,NA,NA,5,0,60,b,1,1.1208257000000683,sub-55530400
NA,NA,NA,NA,NA,NA,NA,rot,blue,b,0,NA,NA,NA,5,1,61,b,1,1.2475601999999526,sub-55530400
NA,NA,NA,NA,NA,NA,NA,gelb,yellow,g,1,NA,NA,NA,5,2,62,g,1,1.3168029999999362,sub-55530400
NA,NA,NA,NA,NA,NA,NA,blau,red,r,0,NA,NA,NA,5,3,63,r,1,1.1238949000000955,sub-55530400
NA,NA,NA,NA,NA,NA,NA,gelb,yellow,g,1,NA,NA,NA,5,4,64,g,1,1.403835600000093,sub-55530400
NA,NA,NA,NA,NA,NA,NA,rot,yellow,g,0,NA,NA,NA,5,5,65,g,1,1.290851099999827,sub-55530400
NA,NA,NA,NA,NA,NA,NA,rot,red,r,1,NA,NA,NA,5,6,66,r,1,1.3909080999999333,sub-55530400
NA,NA,NA,NA,NA,NA,NA,blau,blue,b,1,NA,NA,NA,5,7,67,b,1,0.8100094999999783,sub-55530400
NA,NA,NA,NA,NA,NA,NA,blau,blue,b,1,NA,NA,NA,5,8,68,b,1,0.48913100000004306,sub-55530400
NA,NA,NA,NA,NA,NA,NA,rot,red,r,1,NA,NA,NA,5,9,69,r,1,1.0160011000000395,sub-55530400
NA,NA,NA,NA,NA,NA,NA,gelb,red,r,0,NA,NA,NA,5,10,70,r,1,1.224243099999967,sub-55530400
NA,NA,NA,NA,NA,NA,NA,blau,yellow,g,0,NA,NA,NA,5,11,71,g,1,1.5958393999999316,sub-55530400
NA,NA,NA,NA,NA,NA,NA,blau,blue,b,1,NA,NA,NA,6,0,72,b,1,0.7506755999997949,sub-55530400
NA,NA,NA,NA,NA,NA,NA,blau,blue,b,1,NA,NA,NA,6,1,73,b,1,0.6021484000000328,sub-55530400
NA,NA,NA,NA,NA,NA,NA,gelb,yellow,g,1,NA,NA,NA,6,2,74,g,1,1.1940769000000273,sub-55530400
NA,NA,NA,NA,NA,NA,NA,gelb,red,r,0,NA,NA,NA,6,3,75,r,1,0.847029399999883,sub-55530400
NA,NA,NA,NA,NA,NA,NA,rot,yellow,g,0,NA,NA,NA,6,4,76,g,1,1.2252270000001315,sub-55530400
NA,NA,NA,NA,NA,NA,NA,gelb,yellow,g,1,NA,NA,NA,6,5,77,g,1,0.6674781000001531,sub-55530400
NA,NA,NA,NA,NA,NA,NA,blau,yellow,g,0,NA,NA,NA,6,6,78,g,1,0.7238029999998616,sub-55530400
NA,NA,NA,NA,NA,NA,NA,blau,red,r,0,NA,NA,NA,6,7,79,r,1,1.007006100000126,sub-55530400
NA,NA,NA,NA,NA,NA,NA,rot,red,r,1,NA,NA,NA,6,8,80,r,1,0.9211052000000564,sub-55530400
NA,NA,NA,NA,NA,NA,NA,rot,red,r,1,NA,NA,NA,6,9,81,r,1,0.7234149999999318,sub-55530400
NA,NA,NA,NA,NA,NA,NA,rot,blue,b,0,NA,NA,NA,6,10,82,b,1,0.8851257999999689,sub-55530400
NA,NA,NA,NA,NA,NA,NA,gelb,blue,b,0,NA,NA,NA,6,11,83,g,0,1.3769426999999723,sub-55530400
NA,NA,NA,NA,NA,NA,NA,gelb,yellow,g,1,NA,NA,NA,7,0,84,g,1,1.3937444000000596,sub-55530400
NA,NA,NA,NA,NA,NA,NA,blau,blue,b,1,NA,NA,NA,7,1,85,b,1,0.8448106000000735,sub-55530400
NA,NA,NA,NA,NA,NA,NA,blau,yellow,g,0,NA,NA,NA,7,2,86,b,0,0.9301516999998968,sub-55530400
NA,NA,NA,NA,NA,NA,NA,gelb,red,r,0,NA,NA,NA,7,3,87,r,1,1.5841150999999627,sub-55530400
NA,NA,NA,NA,NA,NA,NA,rot,blue,b,0,NA,NA,NA,7,4,88,b,1,0.8559595000001536,sub-55530400
NA,NA,NA,NA,NA,NA,NA,gelb,yellow,g,1,NA,NA,NA,7,5,89,g,1,1.2959960999999112,sub-55530400
NA,NA,NA,NA,NA,NA,NA,rot,red,r,1,NA,NA,NA,7,6,90,r,1,1.1884959999999865,sub-55530400
NA,NA,NA,NA,NA,NA,NA,rot,yellow,g,0,NA,NA,NA,7,7,91,g,1,1.918556399999943,sub-55530400
NA,NA,NA,NA,NA,NA,NA,blau,red,r,0,NA,NA,NA,7,8,92,r,1,1.3600860000001376,sub-55530400
NA,NA,NA,NA,NA,NA,NA,gelb,blue,b,0,NA,NA,NA,7,9,93,b,1,1.239506800000072,sub-55530400
NA,NA,NA,NA,NA,NA,NA,blau,blue,b,1,NA,NA,NA,7,10,94,b,1,0.8721860000000561,sub-55530400
NA,NA,NA,NA,NA,NA,NA,rot,red,r,1,NA,NA,NA,7,11,95,r,1,0.873491599999852,sub-55530400
NA,NA,NA,NA,NA,NA,NA,rot,yellow,g,0,NA,NA,NA,8,0,96,g,1,1.409925999999814,sub-55530400
NA,NA,NA,NA,NA,NA,NA,blau,yellow,g,0,NA,NA,NA,8,1,97,g,1,1.6440723000000617,sub-55530400
NA,NA,NA,NA,NA,NA,NA,rot,red,r,1,NA,NA,NA,8,2,98,r,1,0.8109051000001273,sub-55530400
NA,NA,NA,NA,NA,NA,NA,blau,blue,b,1,NA,NA,NA,8,3,99,g,0,1.000092400000085,sub-55530400
NA,NA,NA,NA,NA,NA,NA,rot,red,r,1,NA,NA,NA,8,4,100,r,1,1.075834900000018,sub-55530400
NA,NA,NA,NA,NA,NA,NA,rot,blue,b,0,NA,NA,NA,8,5,101,b,1,2.34799420000013,sub-55530400
NA,NA,NA,NA,NA,NA,NA,blau,red,r,0,NA,NA,NA,8,6,102,r,1,1.8529089999999544,sub-55530400
NA,NA,NA,NA,NA,NA,NA,gelb,red,r,0,NA,NA,NA,8,7,103,r,1,2.081481500000109,sub-55530400
NA,NA,NA,NA,NA,NA,NA,gelb,blue,b,0,NA,NA,NA,8,8,104,g,0,1.1467623999999432,sub-55530400
NA,NA,NA,NA,NA,NA,NA,gelb,yellow,g,1,NA,NA,NA,8,9,105,g,1,1.41017439999996,sub-55530400
NA,NA,NA,NA,NA,NA,NA,gelb,yellow,g,1,NA,NA,NA,8,10,106,g,1,0.6853498999998919,sub-55530400
NA,NA,NA,NA,NA,NA,NA,blau,blue,b,1,NA,NA,NA,8,11,107,b,1,0.7344663999999739,sub-55530400
NA,NA,NA,NA,NA,NA,NA,blau,blue,b,1,NA,NA,NA,9,0,108,b,1,1.328672799999822,sub-55530400
NA,NA,NA,NA,NA,NA,NA,rot,red,r,1,NA,NA,NA,9,1,109,r,1,0.84640649999983,sub-55530400
NA,NA,NA,NA,NA,NA,NA,gelb,blue,b,0,NA,NA,NA,9,2,110,b,1,0.9706630000000588,sub-55530400
NA,NA,NA,NA,NA,NA,NA,rot,blue,b,0,NA,NA,NA,9,3,111,b,1,1.4466399999998885,sub-55530400
NA,NA,NA,NA,NA,NA,NA,gelb,yellow,g,1,NA,NA,NA,9,4,112,g,1,1.3995340000001306,sub-55530400
NA,NA,NA,NA,NA,NA,NA,rot,yellow,g,0,NA,NA,NA,9,5,113,r,0,0.9638093999999456,sub-55530400
NA,NA,NA,NA,NA,NA,NA,rot,red,r,1,NA,NA,NA,9,6,114,r,1,1.3986406999999872,sub-55530400
NA,NA,NA,NA,NA,NA,NA,blau,red,r,0,NA,NA,NA,9,7,115,r,1,1.9599046999999248,sub-55530400
NA,NA,NA,NA,NA,NA,NA,blau,yellow,g,0,NA,NA,NA,9,8,116,g,1,1.253285999999889,sub-55530400
NA,NA,NA,NA,NA,NA,NA,gelb,red,r,0,NA,NA,NA,9,9,117,r,1,1.554643500000111,sub-55530400
NA,NA,NA,NA,NA,NA,NA,blau,blue,b,1,NA,NA,NA,9,10,118,b,1,0.7499043000000256,sub-55530400
NA,NA,NA,NA,NA,NA,NA,gelb,yellow,g,1,NA,NA,NA,9,11,119,g,1,1.292395800000122,sub-55530400
NA,NA,NA,NA,NA,NA,NA,NA,NA,NA,NA,NA,NA,NA,NA,NA,NA,NA,NA,NA,sub-55530400
