wordCTK,colorCTK,corrAnsCTK,congruentCTK,wordPractice,colorPractice,congruentPractice,word,color,corrAns,congruent,trials_practice.thisRepN,trials_practice.thisTrialN,trials_practice.thisN,trials_test.thisRepN,trials_test.thisTrialN,trials_test.thisN,keyResp_test_run.keys,keyResp_test_run.corr,keyResp_test_run.rt,participant
NA,NA,NA,NA,NA,NA,NA,NA,NA,NA,NA,NA,NA,NA,NA,NA,NA,NA,NA,NA,sub-84786542
NA,NA,NA,NA,NA,NA,NA,NA,NA,NA,NA,NA,NA,NA,NA,NA,NA,NA,NA,NA,sub-84786542
test,red,r,1,NA,NA,NA,NA,NA,NA,NA,NA,NA,NA,NA,NA,NA,NA,NA,NA,sub-84786542
test,blue,b,1,NA,NA,NA,NA,NA,NA,NA,NA,NA,NA,NA,NA,NA,NA,NA,NA,sub-84786542
test,yellow,g,1,NA,NA,NA,NA,NA,NA,NA,NA,NA,NA,NA,NA,NA,NA,NA,NA,sub-84786542
test,yellow,g,1,NA,NA,NA,NA,NA,NA,NA,NA,NA,NA,NA,NA,NA,NA,NA,NA,sub-84786542
test,blue,b,1,NA,NA,NA,NA,NA,NA,NA,NA,NA,NA,NA,NA,NA,NA,NA,NA,sub-84786542
test,red,r,1,NA,NA,NA,NA,NA,NA,NA,NA,NA,NA,NA,NA,NA,NA,NA,NA,sub-84786542
test,blue,b,1,NA,NA,NA,NA,NA,NA,NA,NA,NA,NA,NA,NA,NA,NA,NA,NA,sub-84786542
test,red,r,1,NA,NA,NA,NA,NA,NA,NA,NA,NA,NA,NA,NA,NA,NA,NA,NA,sub-84786542
test,yellow,g,1,NA,NA,NA,NA,NA,NA,NA,NA,NA,NA,NA,NA,NA,NA,NA,NA,sub-84786542
test,blue,b,1,NA,NA,NA,NA,NA,NA,NA,NA,NA,NA,NA,NA,NA,NA,NA,NA,sub-84786542
test,red,r,1,NA,NA,NA,NA,NA,NA,NA,NA,NA,NA,NA,NA,NA,NA,NA,NA,sub-84786542
test,yellow,g,1,NA,NA,NA,NA,NA,NA,NA,NA,NA,NA,NA,NA,NA,NA,NA,NA,sub-84786542
NA,NA,NA,NA,NA,NA,NA,NA,NA,NA,NA,NA,NA,NA,NA,NA,NA,NA,NA,NA,sub-84786542
NA,NA,NA,NA,rot,red,1,NA,NA,NA,NA,0,0,0,NA,NA,NA,NA,NA,NA,sub-84786542
NA,NA,NA,NA,blau,yellow,0,NA,NA,NA,NA,0,1,1,NA,NA,NA,NA,NA,NA,sub-84786542
NA,NA,NA,NA,gelb,red,0,NA,NA,NA,NA,0,2,2,NA,NA,NA,NA,NA,NA,sub-84786542
NA,NA,NA,NA,rot,yellow,0,NA,NA,NA,NA,0,3,3,NA,NA,NA,NA,NA,NA,sub-84786542
NA,NA,NA,NA,rot,blue,0,NA,NA,NA,NA,0,4,4,NA,NA,NA,NA,NA,NA,sub-84786542
NA,NA,NA,NA,rot,red,1,NA,NA,NA,NA,0,5,5,NA,NA,NA,NA,NA,NA,sub-84786542
NA,NA,NA,NA,gelb,yellow,1,NA,NA,NA,NA,0,6,6,NA,NA,NA,NA,NA,NA,sub-84786542
NA,NA,NA,NA,gelb,blue,0,NA,NA,NA,NA,0,7,7,NA,NA,NA,NA,NA,NA,sub-84786542
NA,NA,NA,NA,blau,blue,1,NA,NA,NA,NA,0,8,8,NA,NA,NA,NA,NA,NA,sub-84786542
NA,NA,NA,NA,blau,blue,1,NA,NA,NA,NA,0,9,9,NA,NA,NA,NA,NA,NA,sub-84786542
NA,NA,NA,NA,gelb,yellow,1,NA,NA,NA,NA,0,10,10,NA,NA,NA,NA,NA,NA,sub-84786542
NA,NA,NA,NA,blau,red,0,NA,NA,NA,NA,0,11,11,NA,NA,NA,NA,NA,NA,sub-84786542
NA,NA,NA,NA,gelb,red,0,NA,NA,NA,NA,1,0,12,NA,NA,NA,NA,NA,NA,sub-84786542
NA,NA,NA,NA,blau,blue,1,NA,NA,NA,NA,1,1,13,NA,NA,NA,NA,NA,NA,sub-84786542
NA,NA,NA,NA,gelb,blue,0,NA,NA,NA,NA,1,2,14,NA,NA,NA,NA,NA,NA,sub-84786542
NA,NA,NA,NA,gelb,yellow,1,NA,NA,NA,NA,1,3,15,NA,NA,NA,NA,NA,NA,sub-84786542
NA,NA,NA,NA,rot,red,1,NA,NA,NA,NA,1,4,16,NA,NA,NA,NA,NA,NA,sub-84786542
NA,NA,NA,NA,blau,blue,1,NA,NA,NA,NA,1,5,17,NA,NA,NA,NA,NA,NA,sub-84786542
NA,NA,NA,NA,rot,blue,0,NA,NA,NA,NA,1,6,18,NA,NA,NA,NA,NA,NA,sub-84786542
NA,NA,NA,NA,rot,red,1,NA,NA,NA,NA,1,7,19,NA,NA,NA,NA,NA,NA,sub-84786542
NA,NA,NA,NA,blau,yellow,0,NA,NA,NA,NA,1,8,20,NA,NA,NA,NA,NA,NA,sub-84786542
NA,NA,NA,NA,gelb,yellow,1,NA,NA,NA,NA,1,9,21,NA,NA,NA,NA,NA,NA,sub-84786542
NA,NA,NA,NA,rot,yellow,0,NA,NA,NA,NA,1,10,22,NA,NA,NA,NA,NA,NA,sub-84786542
NA,NA,NA,NA,blau,red,0,NA,NA,NA,NA,1,11,23,NA,NA,NA,NA,NA,NA,sub-84786542
NA,NA,NA,NA,NA,NA,NA,NA,NA,NA,NA,NA,NA,NA,NA,NA,NA,NA,NA,NA,sub-84786542
NA,NA,NA,NA,NA,NA,NA,blau,yellow,g,0,NA,NA,NA,0,0,0,g,1,0.8289737650047755,sub-84786542
NA,NA,NA,NA,NA,NA,NA,gelb,yellow,g,1,NA,NA,NA,0,1,1,g,1,0.5639937310043024,sub-84786542
NA,NA,NA,NA,NA,NA,NA,rot,blue,b,0,NA,NA,NA,0,2,2,b,1,0.7495138420053991,sub-84786542
NA,NA,NA,NA,NA,NA,NA,blau,red,r,0,NA,NA,NA,0,3,3,r,1,0.37791691200982314,sub-84786542
NA,NA,NA,NA,NA,NA,NA,rot,yellow,g,0,NA,NA,NA,0,4,4,g,1,0.4454341439995914,sub-84786542
NA,NA,NA,NA,NA,NA,NA,gelb,red,r,0,NA,NA,NA,0,5,5,r,1,0.8277029470045818,sub-84786542
NA,NA,NA,NA,NA,NA,NA,blau,blue,b,1,NA,NA,NA,0,6,6,b,1,0.4339117170020472,sub-84786542
NA,NA,NA,NA,NA,NA,NA,rot,red,r,1,NA,NA,NA,0,7,7,r,1,0.8184563719987636,sub-84786542
NA,NA,NA,NA,NA,NA,NA,gelb,blue,b,0,NA,NA,NA,0,8,8,b,1,0.6039125530078309,sub-84786542
NA,NA,NA,NA,NA,NA,NA,rot,red,r,1,NA,NA,NA,0,9,9,r,1,0.5641757889970904,sub-84786542
NA,NA,NA,NA,NA,NA,NA,gelb,yellow,g,1,NA,NA,NA,0,10,10,g,1,0.7006872950005345,sub-84786542
NA,NA,NA,NA,NA,NA,NA,blau,blue,b,1,NA,NA,NA,0,11,11,b,1,0.7618003870011307,sub-84786542
NA,NA,NA,NA,NA,NA,NA,gelb,red,r,0,NA,NA,NA,1,0,12,r,1,0.7845035229984205,sub-84786542
NA,NA,NA,NA,NA,NA,NA,rot,red,r,1,NA,NA,NA,1,1,13,r,1,0.5903205510112457,sub-84786542
NA,NA,NA,NA,NA,NA,NA,gelb,blue,b,0,NA,NA,NA,1,2,14,b,1,0.6050916630047141,sub-84786542
NA,NA,NA,NA,NA,NA,NA,rot,red,r,1,NA,NA,NA,1,3,15,r,1,0.5740891549939988,sub-84786542
NA,NA,NA,NA,NA,NA,NA,blau,blue,b,1,NA,NA,NA,1,4,16,b,1,0.5636982880096184,sub-84786542
NA,NA,NA,NA,NA,NA,NA,blau,yellow,g,0,NA,NA,NA,1,5,17,g,1,0.5193636900075944,sub-84786542
NA,NA,NA,NA,NA,NA,NA,gelb,yellow,g,1,NA,NA,NA,1,6,18,g,1,0.485332700991421,sub-84786542
NA,NA,NA,NA,NA,NA,NA,blau,red,r,0,NA,NA,NA,1,7,19,r,1,0.48638064600527287,sub-84786542
NA,NA,NA,NA,NA,NA,NA,rot,yellow,g,0,NA,NA,NA,1,8,20,g,1,0.676307966990862,sub-84786542
NA,NA,NA,NA,NA,NA,NA,rot,blue,b,0,NA,NA,NA,1,9,21,b,1,0.981133053006488,sub-84786542
NA,NA,NA,NA,NA,NA,NA,blau,blue,b,1,NA,NA,NA,1,10,22,b,1,0.6795657749898965,sub-84786542
NA,NA,NA,NA,NA,NA,NA,gelb,yellow,g,1,NA,NA,NA,1,11,23,g,1,0.5853130350005813,sub-84786542
NA,NA,NA,NA,NA,NA,NA,gelb,red,r,0,NA,NA,NA,2,0,24,r,1,0.4545638279960258,sub-84786542
NA,NA,NA,NA,NA,NA,NA,blau,blue,b,1,NA,NA,NA,2,1,25,b,1,0.6847029250056949,sub-84786542
NA,NA,NA,NA,NA,NA,NA,rot,yellow,g,0,NA,NA,NA,2,2,26,g,1,0.5788024049979867,sub-84786542
NA,NA,NA,NA,NA,NA,NA,rot,blue,b,0,NA,NA,NA,2,3,27,b,1,0.6532180270005483,sub-84786542
NA,NA,NA,NA,NA,NA,NA,blau,blue,b,1,NA,NA,NA,2,4,28,b,1,0.5066467669967096,sub-84786542
NA,NA,NA,NA,NA,NA,NA,rot,red,r,1,NA,NA,NA,2,5,29,r,1,0.526923818004434,sub-84786542
NA,NA,NA,NA,NA,NA,NA,blau,red,r,0,NA,NA,NA,2,6,30,r,1,0.4325213619886199,sub-84786542
NA,NA,NA,NA,NA,NA,NA,gelb,yellow,g,1,NA,NA,NA,2,7,31,g,1,0.6483845949987881,sub-84786542
NA,NA,NA,NA,NA,NA,NA,gelb,yellow,g,1,NA,NA,NA,2,8,32,g,1,0.5688721879996592,sub-84786542
NA,NA,NA,NA,NA,NA,NA,blau,yellow,g,0,NA,NA,NA,2,9,33,g,1,0.8487030880060047,sub-84786542
NA,NA,NA,NA,NA,NA,NA,gelb,blue,b,0,NA,NA,NA,2,10,34,b,1,0.9158921830094188,sub-84786542
NA,NA,NA,NA,NA,NA,NA,rot,red,r,1,NA,NA,NA,2,11,35,r,1,0.5930796379980166,sub-84786542
NA,NA,NA,NA,NA,NA,NA,rot,yellow,g,0,NA,NA,NA,3,0,36,g,1,0.6199763350014109,sub-84786542
NA,NA,NA,NA,NA,NA,NA,blau,blue,b,1,NA,NA,NA,3,1,37,b,1,0.5398065659974236,sub-84786542
NA,NA,NA,NA,NA,NA,NA,blau,yellow,g,0,NA,NA,NA,3,2,38,g,1,0.8699789189995499,sub-84786542
NA,NA,NA,NA,NA,NA,NA,gelb,yellow,g,1,NA,NA,NA,3,3,39,g,1,0.4631863990070997,sub-84786542
NA,NA,NA,NA,NA,NA,NA,blau,red,r,0,NA,NA,NA,3,4,40,r,1,0.4346544339932734,sub-84786542
NA,NA,NA,NA,NA,NA,NA,blau,blue,b,1,NA,NA,NA,3,5,41,b,1,0.7023925790126668,sub-84786542
NA,NA,NA,NA,NA,NA,NA,gelb,red,r,0,NA,NA,NA,3,6,42,r,1,0.5482205239968607,sub-84786542
NA,NA,NA,NA,NA,NA,NA,gelb,yellow,g,1,NA,NA,NA,3,7,43,g,1,0.3376690950099146,sub-84786542
NA,NA,NA,NA,NA,NA,NA,gelb,blue,b,0,NA,NA,NA,3,8,44,b,1,0.4870834960020147,sub-84786542
NA,NA,NA,NA,NA,NA,NA,rot,red,r,1,NA,NA,NA,3,9,45,r,1,0.66310856299242,sub-84786542
NA,NA,NA,NA,NA,NA,NA,rot,blue,b,0,NA,NA,NA,3,10,46,b,1,1.0048528220067965,sub-84786542
NA,NA,NA,NA,NA,NA,NA,rot,red,r,1,NA,NA,NA,3,11,47,r,1,0.531420701998286,sub-84786542
NA,NA,NA,NA,NA,NA,NA,rot,red,r,1,NA,NA,NA,4,0,48,r,1,0.5033466040040366,sub-84786542
NA,NA,NA,NA,NA,NA,NA,blau,yellow,g,0,NA,NA,NA,4,1,49,g,1,0.531830316002015,sub-84786542
NA,NA,NA,NA,NA,NA,NA,blau,blue,b,1,NA,NA,NA,4,2,50,b,1,0.5423590089922072,sub-84786542
NA,NA,NA,NA,NA,NA,NA,gelb,red,r,0,NA,NA,NA,4,3,51,r,1,0.5608134999929462,sub-84786542
NA,NA,NA,NA,NA,NA,NA,gelb,yellow,g,1,NA,NA,NA,4,4,52,g,1,0.4600953740009573,sub-84786542
NA,NA,NA,NA,NA,NA,NA,blau,blue,b,1,NA,NA,NA,4,5,53,b,1,0.8162372799997684,sub-84786542
NA,NA,NA,NA,NA,NA,NA,gelb,yellow,g,1,NA,NA,NA,4,6,54,g,1,0.5255520670034457,sub-84786542
NA,NA,NA,NA,NA,NA,NA,blau,red,r,0,NA,NA,NA,4,7,55,r,1,0.7264122780034086,sub-84786542
NA,NA,NA,NA,NA,NA,NA,rot,red,r,1,NA,NA,NA,4,8,56,r,1,0.6008141869970132,sub-84786542
NA,NA,NA,NA,NA,NA,NA,rot,blue,b,0,NA,NA,NA,4,9,57,b,1,0.5403200400032802,sub-84786542
NA,NA,NA,NA,NA,NA,NA,gelb,blue,b,0,NA,NA,NA,4,10,58,b,1,0.4341961739992257,sub-84786542
NA,NA,NA,NA,NA,NA,NA,rot,yellow,g,0,NA,NA,NA,4,11,59,g,1,0.7347896609862801,sub-84786542
NA,NA,NA,NA,NA,NA,NA,rot,yellow,g,0,NA,NA,NA,5,0,60,g,1,0.554798273005872,sub-84786542
NA,NA,NA,NA,NA,NA,NA,rot,red,r,1,NA,NA,NA,5,1,61,r,1,0.6261117399990326,sub-84786542
NA,NA,NA,NA,NA,NA,NA,gelb,blue,b,0,NA,NA,NA,5,2,62,b,1,0.6851472179987468,sub-84786542
NA,NA,NA,NA,NA,NA,NA,blau,yellow,g,0,NA,NA,NA,5,3,63,g,1,0.6398536219930975,sub-84786542
NA,NA,NA,NA,NA,NA,NA,gelb,red,r,0,NA,NA,NA,5,4,64,r,1,0.7701733789872378,sub-84786542
NA,NA,NA,NA,NA,NA,NA,blau,blue,b,1,NA,NA,NA,5,5,65,b,1,0.5710108559869695,sub-84786542
NA,NA,NA,NA,NA,NA,NA,rot,red,r,1,NA,NA,NA,5,6,66,r,1,0.6207710559974657,sub-84786542
NA,NA,NA,NA,NA,NA,NA,gelb,yellow,g,1,NA,NA,NA,5,7,67,g,1,0.6041591690009227,sub-84786542
NA,NA,NA,NA,NA,NA,NA,blau,blue,b,1,NA,NA,NA,5,8,68,b,1,0.7648331509990385,sub-84786542
NA,NA,NA,NA,NA,NA,NA,rot,blue,b,0,NA,NA,NA,5,9,69,b,1,0.6333539059996838,sub-84786542
NA,NA,NA,NA,NA,NA,NA,gelb,yellow,g,1,NA,NA,NA,5,10,70,g,1,0.9227957389957736,sub-84786542
NA,NA,NA,NA,NA,NA,NA,blau,red,r,0,NA,NA,NA,5,11,71,r,1,0.8933448680036236,sub-84786542
NA,NA,NA,NA,NA,NA,NA,blau,blue,b,1,NA,NA,NA,6,0,72,b,1,1.3532975889975205,sub-84786542
NA,NA,NA,NA,NA,NA,NA,gelb,blue,b,0,NA,NA,NA,6,1,73,b,1,0.6966336449986557,sub-84786542
NA,NA,NA,NA,NA,NA,NA,rot,yellow,g,0,NA,NA,NA,6,2,74,g,1,0.6377926999994088,sub-84786542
NA,NA,NA,NA,NA,NA,NA,blau,red,r,0,NA,NA,NA,6,3,75,r,1,0.7666788960050326,sub-84786542
NA,NA,NA,NA,NA,NA,NA,gelb,yellow,g,1,NA,NA,NA,6,4,76,g,1,1.1611249020061225,sub-84786542
NA,NA,NA,NA,NA,NA,NA,blau,yellow,g,0,NA,NA,NA,6,5,77,g,1,0.5873495240084594,sub-84786542
NA,NA,NA,NA,NA,NA,NA,rot,blue,b,0,NA,NA,NA,6,6,78,b,1,0.8044683530024486,sub-84786542
NA,NA,NA,NA,NA,NA,NA,gelb,red,r,0,NA,NA,NA,6,7,79,r,1,0.6874726940004621,sub-84786542
NA,NA,NA,NA,NA,NA,NA,gelb,yellow,g,1,NA,NA,NA,6,8,80,g,1,0.7063689739879919,sub-84786542
NA,NA,NA,NA,NA,NA,NA,rot,red,r,1,NA,NA,NA,6,9,81,r,1,0.8406420089886524,sub-84786542
NA,NA,NA,NA,NA,NA,NA,rot,red,r,1,NA,NA,NA,6,10,82,r,1,0.5223501069995109,sub-84786542
NA,NA,NA,NA,NA,NA,NA,blau,blue,b,1,NA,NA,NA,6,11,83,b,1,0.6343754600093234,sub-84786542
NA,NA,NA,NA,NA,NA,NA,rot,blue,b,0,NA,NA,NA,7,0,84,b,1,0.6242077899951255,sub-84786542
NA,NA,NA,NA,NA,NA,NA,rot,red,r,1,NA,NA,NA,7,1,85,r,1,0.5003645749966381,sub-84786542
NA,NA,NA,NA,NA,NA,NA,blau,blue,b,1,NA,NA,NA,7,2,86,b,1,0.5255486160021974,sub-84786542
NA,NA,NA,NA,NA,NA,NA,rot,yellow,g,0,NA,NA,NA,7,3,87,g,1,0.6829904850019375,sub-84786542
NA,NA,NA,NA,NA,NA,NA,blau,red,r,0,NA,NA,NA,7,4,88,r,1,0.4358584050060017,sub-84786542
NA,NA,NA,NA,NA,NA,NA,blau,yellow,g,0,NA,NA,NA,7,5,89,g,1,0.7903143389994511,sub-84786542
NA,NA,NA,NA,NA,NA,NA,gelb,yellow,g,1,NA,NA,NA,7,6,90,g,1,0.5374975830054609,sub-84786542
NA,NA,NA,NA,NA,NA,NA,gelb,blue,b,0,NA,NA,NA,7,7,91,b,1,0.5380542039929423,sub-84786542
NA,NA,NA,NA,NA,NA,NA,blau,blue,b,1,NA,NA,NA,7,8,92,b,1,0.5126689539902145,sub-84786542
NA,NA,NA,NA,NA,NA,NA,gelb,yellow,g,1,NA,NA,NA,7,9,93,g,1,0.783372136997059,sub-84786542
NA,NA,NA,NA,NA,NA,NA,rot,red,r,1,NA,NA,NA,7,10,94,r,1,0.6166301390039735,sub-84786542
NA,NA,NA,NA,NA,NA,NA,gelb,red,r,0,NA,NA,NA,7,11,95,r,1,0.6140029990056064,sub-84786542
NA,NA,NA,NA,NA,NA,NA,gelb,blue,b,0,NA,NA,NA,8,0,96,b,1,1.0194969580043107,sub-84786542
NA,NA,NA,NA,NA,NA,NA,gelb,yellow,g,1,NA,NA,NA,8,1,97,g,1,0.5395451780059375,sub-84786542
NA,NA,NA,NA,NA,NA,NA,blau,red,r,0,NA,NA,NA,8,2,98,r,1,0.6409091520035872,sub-84786542
NA,NA,NA,NA,NA,NA,NA,blau,blue,b,1,NA,NA,NA,8,3,99,b,1,0.5964053779898677,sub-84786542
NA,NA,NA,NA,NA,NA,NA,gelb,red,r,0,NA,NA,NA,8,4,100,r,1,0.9798303979914637,sub-84786542
NA,NA,NA,NA,NA,NA,NA,rot,red,r,1,NA,NA,NA,8,5,101,r,1,0.5607789969944861,sub-84786542
NA,NA,NA,NA,NA,NA,NA,blau,yellow,g,0,NA,NA,NA,8,6,102,g,1,0.6665646059991559,sub-84786542
NA,NA,NA,NA,NA,NA,NA,gelb,yellow,g,1,NA,NA,NA,8,7,103,g,1,0.7645945359981852,sub-84786542
NA,NA,NA,NA,NA,NA,NA,rot,blue,b,0,NA,NA,NA,8,8,104,b,1,0.8292404120002175,sub-84786542
NA,NA,NA,NA,NA,NA,NA,rot,yellow,g,0,NA,NA,NA,8,9,105,g,1,0.8660459490056382,sub-84786542
NA,NA,NA,NA,NA,NA,NA,blau,blue,b,1,NA,NA,NA,8,10,106,b,1,0.5938098170008743,sub-84786542
NA,NA,NA,NA,NA,NA,NA,rot,red,r,1,NA,NA,NA,8,11,107,r,1,0.6364622529945336,sub-84786542
NA,NA,NA,NA,NA,NA,NA,rot,red,r,1,NA,NA,NA,9,0,108,r,1,0.6683548779983539,sub-84786542
NA,NA,NA,NA,NA,NA,NA,blau,blue,b,1,NA,NA,NA,9,1,109,b,1,0.675405508998665,sub-84786542
NA,NA,NA,NA,NA,NA,NA,blau,red,r,0,NA,NA,NA,9,2,110,r,1,0.8725749110017205,sub-84786542
NA,NA,NA,NA,NA,NA,NA,rot,red,r,1,NA,NA,NA,9,3,111,r,1,0.4772057829977712,sub-84786542
NA,NA,NA,NA,NA,NA,NA,gelb,yellow,g,1,NA,NA,NA,9,4,112,g,1,0.8802643569943029,sub-84786542
NA,NA,NA,NA,NA,NA,NA,rot,yellow,g,0,NA,NA,NA,9,5,113,g,1,0.8500486230041133,sub-84786542
NA,NA,NA,NA,NA,NA,NA,gelb,red,r,0,NA,NA,NA,9,6,114,r,1,0.720286543990369,sub-84786542
NA,NA,NA,NA,NA,NA,NA,gelb,blue,b,0,NA,NA,NA,9,7,115,b,1,0.7714324539992958,sub-84786542
NA,NA,NA,NA,NA,NA,NA,blau,blue,b,1,NA,NA,NA,9,8,116,b,1,0.5303492919920245,sub-84786542
NA,NA,NA,NA,NA,NA,NA,rot,blue,b,0,NA,NA,NA,9,9,117,b,1,0.4505322100012563,sub-84786542
NA,NA,NA,NA,NA,NA,NA,blau,yellow,g,0,NA,NA,NA,9,10,118,g,1,0.45240821900370065,sub-84786542
NA,NA,NA,NA,NA,NA,NA,gelb,yellow,g,1,NA,NA,NA,9,11,119,g,1,0.5113302989921067,sub-84786542
NA,NA,NA,NA,NA,NA,NA,NA,NA,NA,NA,NA,NA,NA,NA,NA,NA,NA,NA,NA,sub-84786542
