wordCTK,colorCTK,corrAnsCTK,congruentCTK,wordPractice,colorPractice,congruentPractice,word,color,corrAns,congruent,trials_practice.thisRepN,trials_practice.thisTrialN,trials_practice.thisN,trials_test.thisRepN,trials_test.thisTrialN,trials_test.thisN,keyResp_test_run.keys,keyResp_test_run.corr,keyResp_test_run.rt,participant
NA,NA,NA,NA,NA,NA,NA,NA,NA,NA,NA,NA,NA,NA,NA,NA,NA,NA,NA,NA,sub-81061593
NA,NA,NA,NA,NA,NA,NA,NA,NA,NA,NA,NA,NA,NA,NA,NA,NA,NA,NA,NA,sub-81061593
test,red,r,1,NA,NA,NA,NA,NA,NA,NA,NA,NA,NA,NA,NA,NA,NA,NA,NA,sub-81061593
test,blue,b,1,NA,NA,NA,NA,NA,NA,NA,NA,NA,NA,NA,NA,NA,NA,NA,NA,sub-81061593
test,yellow,g,1,NA,NA,NA,NA,NA,NA,NA,NA,NA,NA,NA,NA,NA,NA,NA,NA,sub-81061593
test,blue,b,1,NA,NA,NA,NA,NA,NA,NA,NA,NA,NA,NA,NA,NA,NA,NA,NA,sub-81061593
test,yellow,g,1,NA,NA,NA,NA,NA,NA,NA,NA,NA,NA,NA,NA,NA,NA,NA,NA,sub-81061593
test,red,r,1,NA,NA,NA,NA,NA,NA,NA,NA,NA,NA,NA,NA,NA,NA,NA,NA,sub-81061593
test,yellow,g,1,NA,NA,NA,NA,NA,NA,NA,NA,NA,NA,NA,NA,NA,NA,NA,NA,sub-81061593
test,red,r,1,NA,NA,NA,NA,NA,NA,NA,NA,NA,NA,NA,NA,NA,NA,NA,NA,sub-81061593
test,blue,b,1,NA,NA,NA,NA,NA,NA,NA,NA,NA,NA,NA,NA,NA,NA,NA,NA,sub-81061593
test,red,r,1,NA,NA,NA,NA,NA,NA,NA,NA,NA,NA,NA,NA,NA,NA,NA,NA,sub-81061593
test,blue,b,1,NA,NA,NA,NA,NA,NA,NA,NA,NA,NA,NA,NA,NA,NA,NA,NA,sub-81061593
test,yellow,g,1,NA,NA,NA,NA,NA,NA,NA,NA,NA,NA,NA,NA,NA,NA,NA,NA,sub-81061593
NA,NA,NA,NA,NA,NA,NA,NA,NA,NA,NA,NA,NA,NA,NA,NA,NA,NA,NA,NA,sub-81061593
NA,NA,NA,NA,blau,blue,1,NA,NA,NA,NA,0,0,0,NA,NA,NA,NA,NA,NA,sub-81061593
NA,NA,NA,NA,blau,red,0,NA,NA,NA,NA,0,1,1,NA,NA,NA,NA,NA,NA,sub-81061593
NA,NA,NA,NA,blau,yellow,0,NA,NA,NA,NA,0,2,2,NA,NA,NA,NA,NA,NA,sub-81061593
NA,NA,NA,NA,gelb,yellow,1,NA,NA,NA,NA,0,3,3,NA,NA,NA,NA,NA,NA,sub-81061593
NA,NA,NA,NA,rot,red,1,NA,NA,NA,NA,0,4,4,NA,NA,NA,NA,NA,NA,sub-81061593
NA,NA,NA,NA,rot,red,1,NA,NA,NA,NA,0,5,5,NA,NA,NA,NA,NA,NA,sub-81061593
NA,NA,NA,NA,gelb,yellow,1,NA,NA,NA,NA,0,6,6,NA,NA,NA,NA,NA,NA,sub-81061593
NA,NA,NA,NA,gelb,red,0,NA,NA,NA,NA,0,7,7,NA,NA,NA,NA,NA,NA,sub-81061593
NA,NA,NA,NA,rot,blue,0,NA,NA,NA,NA,0,8,8,NA,NA,NA,NA,NA,NA,sub-81061593
NA,NA,NA,NA,blau,blue,1,NA,NA,NA,NA,0,9,9,NA,NA,NA,NA,NA,NA,sub-81061593
NA,NA,NA,NA,gelb,blue,0,NA,NA,NA,NA,0,10,10,NA,NA,NA,NA,NA,NA,sub-81061593
NA,NA,NA,NA,rot,yellow,0,NA,NA,NA,NA,0,11,11,NA,NA,NA,NA,NA,NA,sub-81061593
NA,NA,NA,NA,blau,blue,1,NA,NA,NA,NA,1,0,12,NA,NA,NA,NA,NA,NA,sub-81061593
NA,NA,NA,NA,rot,blue,0,NA,NA,NA,NA,1,1,13,NA,NA,NA,NA,NA,NA,sub-81061593
NA,NA,NA,NA,rot,red,1,NA,NA,NA,NA,1,2,14,NA,NA,NA,NA,NA,NA,sub-81061593
NA,NA,NA,NA,gelb,yellow,1,NA,NA,NA,NA,1,3,15,NA,NA,NA,NA,NA,NA,sub-81061593
NA,NA,NA,NA,gelb,red,0,NA,NA,NA,NA,1,4,16,NA,NA,NA,NA,NA,NA,sub-81061593
NA,NA,NA,NA,rot,red,1,NA,NA,NA,NA,1,5,17,NA,NA,NA,NA,NA,NA,sub-81061593
NA,NA,NA,NA,blau,yellow,0,NA,NA,NA,NA,1,6,18,NA,NA,NA,NA,NA,NA,sub-81061593
NA,NA,NA,NA,gelb,yellow,1,NA,NA,NA,NA,1,7,19,NA,NA,NA,NA,NA,NA,sub-81061593
NA,NA,NA,NA,blau,blue,1,NA,NA,NA,NA,1,8,20,NA,NA,NA,NA,NA,NA,sub-81061593
NA,NA,NA,NA,gelb,blue,0,NA,NA,NA,NA,1,9,21,NA,NA,NA,NA,NA,NA,sub-81061593
NA,NA,NA,NA,blau,red,0,NA,NA,NA,NA,1,10,22,NA,NA,NA,NA,NA,NA,sub-81061593
NA,NA,NA,NA,rot,yellow,0,NA,NA,NA,NA,1,11,23,NA,NA,NA,NA,NA,NA,sub-81061593
NA,NA,NA,NA,NA,NA,NA,NA,NA,NA,NA,NA,NA,NA,NA,NA,NA,NA,NA,NA,sub-81061593
NA,NA,NA,NA,NA,NA,NA,gelb,red,r,0,NA,NA,NA,0,0,0,r,1,1.9072218280052768,sub-81061593
NA,NA,NA,NA,NA,NA,NA,rot,blue,b,0,NA,NA,NA,0,1,1,b,1,2.1641557709954213,sub-81061593
NA,NA,NA,NA,NA,NA,NA,gelb,yellow,g,1,NA,NA,NA,0,2,2,g,1,1.196098907996202,sub-81061593
NA,NA,NA,NA,NA,NA,NA,rot,red,r,1,NA,NA,NA,0,3,3,r,1,1.2104316460026894,sub-81061593
NA,NA,NA,NA,NA,NA,NA,blau,blue,b,1,NA,NA,NA,0,4,4,b,1,0.9353757780045272,sub-81061593
NA,NA,NA,NA,NA,NA,NA,rot,red,r,1,NA,NA,NA,0,5,5,r,1,1.284539685002528,sub-81061593
NA,NA,NA,NA,NA,NA,NA,gelb,blue,b,0,NA,NA,NA,0,6,6,b,1,1.7830029469914734,sub-81061593
NA,NA,NA,NA,NA,NA,NA,blau,red,r,0,NA,NA,NA,0,7,7,r,1,1.5911749599908944,sub-81061593
NA,NA,NA,NA,NA,NA,NA,blau,yellow,g,0,NA,NA,NA,0,8,8,g,1,1.2243560279894157,sub-81061593
NA,NA,NA,NA,NA,NA,NA,gelb,yellow,g,1,NA,NA,NA,0,9,9,g,1,0.7372167109861039,sub-81061593
NA,NA,NA,NA,NA,NA,NA,rot,yellow,g,0,NA,NA,NA,0,10,10,g,1,0.7568948010157328,sub-81061593
NA,NA,NA,NA,NA,NA,NA,blau,blue,b,1,NA,NA,NA,0,11,11,b,1,1.4313482380239293,sub-81061593
NA,NA,NA,NA,NA,NA,NA,gelb,red,r,0,NA,NA,NA,1,0,12,r,1,1.1337634069786873,sub-81061593
NA,NA,NA,NA,NA,NA,NA,blau,yellow,g,0,NA,NA,NA,1,1,13,g,1,0.9804246529820376,sub-81061593
NA,NA,NA,NA,NA,NA,NA,gelb,blue,b,0,NA,NA,NA,1,2,14,b,1,0.7598872130038217,sub-81061593
NA,NA,NA,NA,NA,NA,NA,rot,red,r,1,NA,NA,NA,1,3,15,r,1,0.9512625499919524,sub-81061593
NA,NA,NA,NA,NA,NA,NA,gelb,yellow,g,1,NA,NA,NA,1,4,16,g,1,1.0628470279916655,sub-81061593
NA,NA,NA,NA,NA,NA,NA,blau,blue,b,1,NA,NA,NA,1,5,17,b,1,0.9606436209869572,sub-81061593
NA,NA,NA,NA,NA,NA,NA,rot,yellow,g,0,NA,NA,NA,1,6,18,g,1,1.615414027008228,sub-81061593
NA,NA,NA,NA,NA,NA,NA,gelb,yellow,g,1,NA,NA,NA,1,7,19,g,1,0.9291058370145038,sub-81061593
NA,NA,NA,NA,NA,NA,NA,rot,blue,b,0,NA,NA,NA,1,8,20,b,1,1.67599361599423,sub-81061593
NA,NA,NA,NA,NA,NA,NA,blau,blue,b,1,NA,NA,NA,1,9,21,b,1,0.7817684620094951,sub-81061593
NA,NA,NA,NA,NA,NA,NA,rot,red,r,1,NA,NA,NA,1,10,22,r,1,1.0961676129954867,sub-81061593
NA,NA,NA,NA,NA,NA,NA,blau,red,r,0,NA,NA,NA,1,11,23,r,1,0.7834428200148977,sub-81061593
NA,NA,NA,NA,NA,NA,NA,blau,blue,b,1,NA,NA,NA,2,0,24,b,1,1.0616240230156109,sub-81061593
NA,NA,NA,NA,NA,NA,NA,gelb,red,r,0,NA,NA,NA,2,1,25,r,1,1.4581984599935822,sub-81061593
NA,NA,NA,NA,NA,NA,NA,gelb,yellow,g,1,NA,NA,NA,2,2,26,g,1,1.131628497998463,sub-81061593
NA,NA,NA,NA,NA,NA,NA,blau,yellow,g,0,NA,NA,NA,2,3,27,g,1,0.6185827919980511,sub-81061593
NA,NA,NA,NA,NA,NA,NA,gelb,yellow,g,1,NA,NA,NA,2,4,28,g,1,0.5645494160125963,sub-81061593
NA,NA,NA,NA,NA,NA,NA,rot,red,r,1,NA,NA,NA,2,5,29,r,1,1.2033957229868977,sub-81061593
NA,NA,NA,NA,NA,NA,NA,blau,red,r,0,NA,NA,NA,2,6,30,r,1,0.5150894229882397,sub-81061593
NA,NA,NA,NA,NA,NA,NA,gelb,blue,b,0,NA,NA,NA,2,7,31,b,1,0.860587592003867,sub-81061593
NA,NA,NA,NA,NA,NA,NA,rot,red,r,1,NA,NA,NA,2,8,32,r,1,0.966962551989127,sub-81061593
NA,NA,NA,NA,NA,NA,NA,blau,blue,b,1,NA,NA,NA,2,9,33,b,1,1.0302570549829395,sub-81061593
NA,NA,NA,NA,NA,NA,NA,rot,yellow,g,0,NA,NA,NA,2,10,34,g,1,0.9520454680023248,sub-81061593
NA,NA,NA,NA,NA,NA,NA,rot,blue,b,0,NA,NA,NA,2,11,35,b,1,1.1358165480196476,sub-81061593
NA,NA,NA,NA,NA,NA,NA,rot,yellow,g,0,NA,NA,NA,3,0,36,g,1,1.6657162450137548,sub-81061593
NA,NA,NA,NA,NA,NA,NA,rot,red,r,1,NA,NA,NA,3,1,37,r,1,1.522145285998704,sub-81061593
NA,NA,NA,NA,NA,NA,NA,rot,blue,b,0,NA,NA,NA,3,2,38,b,1,0.8455641909968108,sub-81061593
NA,NA,NA,NA,NA,NA,NA,gelb,blue,b,0,NA,NA,NA,3,3,39,b,1,1.1252409880107734,sub-81061593
NA,NA,NA,NA,NA,NA,NA,gelb,yellow,g,1,NA,NA,NA,3,4,40,g,1,1.148270236008102,sub-81061593
NA,NA,NA,NA,NA,NA,NA,blau,yellow,g,0,NA,NA,NA,3,5,41,g,1,0.8751992319885176,sub-81061593
NA,NA,NA,NA,NA,NA,NA,blau,red,r,0,NA,NA,NA,3,6,42,r,1,1.3589172550127842,sub-81061593
NA,NA,NA,NA,NA,NA,NA,blau,blue,b,1,NA,NA,NA,3,7,43,b,1,1.3991553130035754,sub-81061593
NA,NA,NA,NA,NA,NA,NA,gelb,red,r,0,NA,NA,NA,3,8,44,r,1,1.2831299480167218,sub-81061593
NA,NA,NA,NA,NA,NA,NA,gelb,yellow,g,1,NA,NA,NA,3,9,45,g,1,0.967493677017046,sub-81061593
NA,NA,NA,NA,NA,NA,NA,rot,red,r,1,NA,NA,NA,3,10,46,r,1,1.417938801983837,sub-81061593
NA,NA,NA,NA,NA,NA,NA,blau,blue,b,1,NA,NA,NA,3,11,47,b,1,0.9855997980048414,sub-81061593
NA,NA,NA,NA,NA,NA,NA,blau,blue,b,1,NA,NA,NA,4,0,48,b,1,0.9464437599817755,sub-81061593
NA,NA,NA,NA,NA,NA,NA,gelb,yellow,g,1,NA,NA,NA,4,1,49,g,1,1.0920312099915463,sub-81061593
NA,NA,NA,NA,NA,NA,NA,gelb,red,r,0,NA,NA,NA,4,2,50,r,1,1.2299751589889638,sub-81061593
NA,NA,NA,NA,NA,NA,NA,rot,blue,b,0,NA,NA,NA,4,3,51,b,1,1.2258958050224464,sub-81061593
NA,NA,NA,NA,NA,NA,NA,rot,red,r,1,NA,NA,NA,4,4,52,r,1,1.0317863820237108,sub-81061593
NA,NA,NA,NA,NA,NA,NA,blau,blue,b,1,NA,NA,NA,4,5,53,b,1,0.8427175389952026,sub-81061593
NA,NA,NA,NA,NA,NA,NA,rot,red,r,1,NA,NA,NA,4,6,54,r,1,0.8458919920085464,sub-81061593
NA,NA,NA,NA,NA,NA,NA,gelb,blue,b,0,NA,NA,NA,4,7,55,b,1,1.0702541600039694,sub-81061593
NA,NA,NA,NA,NA,NA,NA,blau,red,r,0,NA,NA,NA,4,8,56,r,1,1.2672723080031574,sub-81061593
NA,NA,NA,NA,NA,NA,NA,gelb,yellow,g,1,NA,NA,NA,4,9,57,g,1,1.0945269479998387,sub-81061593
NA,NA,NA,NA,NA,NA,NA,blau,yellow,g,0,NA,NA,NA,4,10,58,g,1,0.5945273530087434,sub-81061593
NA,NA,NA,NA,NA,NA,NA,rot,yellow,g,0,NA,NA,NA,4,11,59,g,1,0.5279978250036947,sub-81061593
NA,NA,NA,NA,NA,NA,NA,blau,yellow,g,0,NA,NA,NA,5,0,60,g,1,0.7328920199943241,sub-81061593
NA,NA,NA,NA,NA,NA,NA,gelb,yellow,g,1,NA,NA,NA,5,1,61,g,1,0.6001761349907611,sub-81061593
NA,NA,NA,NA,NA,NA,NA,blau,blue,b,1,NA,NA,NA,5,2,62,b,1,1.0538490999897476,sub-81061593
NA,NA,NA,NA,NA,NA,NA,rot,blue,b,0,NA,NA,NA,5,3,63,b,1,0.7699439080024604,sub-81061593
NA,NA,NA,NA,NA,NA,NA,blau,red,r,0,NA,NA,NA,5,4,64,r,1,1.127330268995138,sub-81061593
NA,NA,NA,NA,NA,NA,NA,rot,red,r,1,NA,NA,NA,5,5,65,r,1,0.4787023969984148,sub-81061593
NA,NA,NA,NA,NA,NA,NA,gelb,red,r,0,NA,NA,NA,5,6,66,r,1,0.5728311229904648,sub-81061593
NA,NA,NA,NA,NA,NA,NA,rot,yellow,g,0,NA,NA,NA,5,7,67,g,1,1.3993966600100975,sub-81061593
NA,NA,NA,NA,NA,NA,NA,gelb,yellow,g,1,NA,NA,NA,5,8,68,g,1,0.830935486999806,sub-81061593
NA,NA,NA,NA,NA,NA,NA,blau,blue,b,1,NA,NA,NA,5,9,69,b,1,0.9598373999760952,sub-81061593
NA,NA,NA,NA,NA,NA,NA,gelb,blue,b,0,NA,NA,NA,5,10,70,b,1,0.518572562985355,sub-81061593
NA,NA,NA,NA,NA,NA,NA,rot,red,r,1,NA,NA,NA,5,11,71,r,1,1.0796728529967368,sub-81061593
NA,NA,NA,NA,NA,NA,NA,blau,yellow,g,0,NA,NA,NA,6,0,72,g,1,0.9056769050075671,sub-81061593
NA,NA,NA,NA,NA,NA,NA,rot,red,r,1,NA,NA,NA,6,1,73,r,1,0.6863394529791549,sub-81061593
NA,NA,NA,NA,NA,NA,NA,blau,red,r,0,NA,NA,NA,6,2,74,r,1,0.9384569109824952,sub-81061593
NA,NA,NA,NA,NA,NA,NA,gelb,blue,b,0,NA,NA,NA,6,3,75,b,1,1.6314807239978109,sub-81061593
NA,NA,NA,NA,NA,NA,NA,rot,red,r,1,NA,NA,NA,6,4,76,r,1,0.9428716080146842,sub-81061593
NA,NA,NA,NA,NA,NA,NA,gelb,yellow,g,1,NA,NA,NA,6,5,77,g,1,1.0074133029847872,sub-81061593
NA,NA,NA,NA,NA,NA,NA,blau,blue,b,1,NA,NA,NA,6,6,78,b,1,1.0021989840024617,sub-81061593
NA,NA,NA,NA,NA,NA,NA,gelb,yellow,g,1,NA,NA,NA,6,7,79,g,1,1.1960722130024806,sub-81061593
NA,NA,NA,NA,NA,NA,NA,gelb,red,r,0,NA,NA,NA,6,8,80,r,1,1.0794972279982176,sub-81061593
NA,NA,NA,NA,NA,NA,NA,rot,yellow,g,0,NA,NA,NA,6,9,81,g,1,1.013923638005508,sub-81061593
NA,NA,NA,NA,NA,NA,NA,rot,blue,b,0,NA,NA,NA,6,10,82,b,1,1.1976737049990334,sub-81061593
NA,NA,NA,NA,NA,NA,NA,blau,blue,b,1,NA,NA,NA,6,11,83,b,1,0.5658127929782495,sub-81061593
NA,NA,NA,NA,NA,NA,NA,blau,red,r,0,NA,NA,NA,7,0,84,r,1,1.3712116550013889,sub-81061593
NA,NA,NA,NA,NA,NA,NA,blau,yellow,g,0,NA,NA,NA,7,1,85,g,1,1.0054522950085811,sub-81061593
NA,NA,NA,NA,NA,NA,NA,rot,blue,b,0,NA,NA,NA,7,2,86,b,1,1.596611250017304,sub-81061593
NA,NA,NA,NA,NA,NA,NA,gelb,yellow,g,1,NA,NA,NA,7,3,87,g,1,1.2315267229860185,sub-81061593
NA,NA,NA,NA,NA,NA,NA,blau,blue,b,1,NA,NA,NA,7,4,88,b,1,1.1251701830187812,sub-81061593
NA,NA,NA,NA,NA,NA,NA,gelb,red,r,0,NA,NA,NA,7,5,89,r,1,1.0257659530034289,sub-81061593
NA,NA,NA,NA,NA,NA,NA,blau,blue,b,1,NA,NA,NA,7,6,90,b,1,0.9863764249894302,sub-81061593
NA,NA,NA,NA,NA,NA,NA,gelb,yellow,g,1,NA,NA,NA,7,7,91,g,1,1.1706308249849826,sub-81061593
NA,NA,NA,NA,NA,NA,NA,rot,red,r,1,NA,NA,NA,7,8,92,r,1,0.99134360201424,sub-81061593
NA,NA,NA,NA,NA,NA,NA,rot,yellow,g,0,NA,NA,NA,7,9,93,g,1,0.9866109200229404,sub-81061593
NA,NA,NA,NA,NA,NA,NA,rot,red,r,1,NA,NA,NA,7,10,94,r,1,0.8676025439926889,sub-81061593
NA,NA,NA,NA,NA,NA,NA,gelb,blue,b,0,NA,NA,NA,7,11,95,b,1,1.2860312050033826,sub-81061593
NA,NA,NA,NA,NA,NA,NA,rot,red,r,1,NA,NA,NA,8,0,96,r,1,1.0388698860188017,sub-81061593
NA,NA,NA,NA,NA,NA,NA,blau,yellow,g,0,NA,NA,NA,8,1,97,g,1,1.352674140012823,sub-81061593
NA,NA,NA,NA,NA,NA,NA,rot,blue,b,0,NA,NA,NA,8,2,98,b,1,1.24622252502013,sub-81061593
NA,NA,NA,NA,NA,NA,NA,blau,blue,b,1,NA,NA,NA,8,3,99,b,1,0.6088319330010563,sub-81061593
NA,NA,NA,NA,NA,NA,NA,blau,blue,b,1,NA,NA,NA,8,4,100,b,1,0.7379166350001469,sub-81061593
NA,NA,NA,NA,NA,NA,NA,gelb,yellow,g,1,NA,NA,NA,8,5,101,g,1,1.1701532219885848,sub-81061593
NA,NA,NA,NA,NA,NA,NA,rot,yellow,g,0,NA,NA,NA,8,6,102,g,1,1.2037278140196577,sub-81061593
NA,NA,NA,NA,NA,NA,NA,gelb,red,r,0,NA,NA,NA,8,7,103,r,1,1.7326786539924797,sub-81061593
NA,NA,NA,NA,NA,NA,NA,rot,red,r,1,NA,NA,NA,8,8,104,r,1,0.867006565007614,sub-81061593
NA,NA,NA,NA,NA,NA,NA,gelb,blue,b,0,NA,NA,NA,8,9,105,b,1,1.193358910997631,sub-81061593
NA,NA,NA,NA,NA,NA,NA,gelb,yellow,g,1,NA,NA,NA,8,10,106,g,1,1.060280931997113,sub-81061593
NA,NA,NA,NA,NA,NA,NA,blau,red,r,0,NA,NA,NA,8,11,107,r,1,1.267413702007616,sub-81061593
NA,NA,NA,NA,NA,NA,NA,rot,yellow,g,0,NA,NA,NA,9,0,108,g,1,0.98212879098719,sub-81061593
NA,NA,NA,NA,NA,NA,NA,rot,red,r,1,NA,NA,NA,9,1,109,r,1,1.0110256659972947,sub-81061593
NA,NA,NA,NA,NA,NA,NA,blau,red,r,0,NA,NA,NA,9,2,110,r,1,1.0831752250087447,sub-81061593
NA,NA,NA,NA,NA,NA,NA,gelb,yellow,g,1,NA,NA,NA,9,3,111,g,1,1.0251432700024452,sub-81061593
NA,NA,NA,NA,NA,NA,NA,rot,blue,b,0,NA,NA,NA,9,4,112,b,1,1.2088360589987133,sub-81061593
NA,NA,NA,NA,NA,NA,NA,gelb,blue,b,0,NA,NA,NA,9,5,113,b,1,0.734752684016712,sub-81061593
NA,NA,NA,NA,NA,NA,NA,gelb,red,r,0,NA,NA,NA,9,6,114,r,1,1.85105750799994,sub-81061593
NA,NA,NA,NA,NA,NA,NA,blau,blue,b,1,NA,NA,NA,9,7,115,b,1,0.6346265129977837,sub-81061593
NA,NA,NA,NA,NA,NA,NA,gelb,yellow,g,1,NA,NA,NA,9,8,116,g,1,1.0594326150021516,sub-81061593
NA,NA,NA,NA,NA,NA,NA,rot,red,r,1,NA,NA,NA,9,9,117,r,1,0.9566420479968656,sub-81061593
NA,NA,NA,NA,NA,NA,NA,blau,blue,b,1,NA,NA,NA,9,10,118,b,1,1.0759038020041771,sub-81061593
NA,NA,NA,NA,NA,NA,NA,blau,yellow,g,0,NA,NA,NA,9,11,119,g,1,1.171430246991804,sub-81061593
NA,NA,NA,NA,NA,NA,NA,NA,NA,NA,NA,NA,NA,NA,NA,NA,NA,NA,NA,NA,sub-81061593
