wordCTK,colorCTK,corrAnsCTK,congruentCTK,wordPractice,colorPractice,congruentPractice,word,color,corrAns,congruent,trials_practice.thisRepN,trials_practice.thisTrialN,trials_practice.thisN,trials_test.thisRepN,trials_test.thisTrialN,trials_test.thisN,keyResp_test_run.keys,keyResp_test_run.corr,keyResp_test_run.rt,participant
NA,NA,NA,NA,NA,NA,NA,NA,NA,NA,NA,NA,NA,NA,NA,NA,NA,NA,NA,NA,sub-98027824
NA,NA,NA,NA,NA,NA,NA,NA,NA,NA,NA,NA,NA,NA,NA,NA,NA,NA,NA,NA,sub-98027824
test,red,r,1,NA,NA,NA,NA,NA,NA,NA,NA,NA,NA,NA,NA,NA,NA,NA,NA,sub-98027824
test,yellow,g,1,NA,NA,NA,NA,NA,NA,NA,NA,NA,NA,NA,NA,NA,NA,NA,NA,sub-98027824
test,blue,b,1,NA,NA,NA,NA,NA,NA,NA,NA,NA,NA,NA,NA,NA,NA,NA,NA,sub-98027824
test,blue,b,1,NA,NA,NA,NA,NA,NA,NA,NA,NA,NA,NA,NA,NA,NA,NA,NA,sub-98027824
test,red,r,1,NA,NA,NA,NA,NA,NA,NA,NA,NA,NA,NA,NA,NA,NA,NA,NA,sub-98027824
test,yellow,g,1,NA,NA,NA,NA,NA,NA,NA,NA,NA,NA,NA,NA,NA,NA,NA,NA,sub-98027824
test,blue,b,1,NA,NA,NA,NA,NA,NA,NA,NA,NA,NA,NA,NA,NA,NA,NA,NA,sub-98027824
test,yellow,g,1,NA,NA,NA,NA,NA,NA,NA,NA,NA,NA,NA,NA,NA,NA,NA,NA,sub-98027824
test,red,r,1,NA,NA,NA,NA,NA,NA,NA,NA,NA,NA,NA,NA,NA,NA,NA,NA,sub-98027824
test,red,r,1,NA,NA,NA,NA,NA,NA,NA,NA,NA,NA,NA,NA,NA,NA,NA,NA,sub-98027824
test,yellow,g,1,NA,NA,NA,NA,NA,NA,NA,NA,NA,NA,NA,NA,NA,NA,NA,NA,sub-98027824
test,blue,b,1,NA,NA,NA,NA,NA,NA,NA,NA,NA,NA,NA,NA,NA,NA,NA,NA,sub-98027824
NA,NA,NA,NA,NA,NA,NA,NA,NA,NA,NA,NA,NA,NA,NA,NA,NA,NA,NA,NA,sub-98027824
NA,NA,NA,NA,rot,red,1,NA,NA,NA,NA,0,0,0,NA,NA,NA,NA,NA,NA,sub-98027824
NA,NA,NA,NA,blau,blue,1,NA,NA,NA,NA,0,1,1,NA,NA,NA,NA,NA,NA,sub-98027824
NA,NA,NA,NA,rot,yellow,0,NA,NA,NA,NA,0,2,2,NA,NA,NA,NA,NA,NA,sub-98027824
NA,NA,NA,NA,blau,yellow,0,NA,NA,NA,NA,0,3,3,NA,NA,NA,NA,NA,NA,sub-98027824
NA,NA,NA,NA,rot,red,1,NA,NA,NA,NA,0,4,4,NA,NA,NA,NA,NA,NA,sub-98027824
NA,NA,NA,NA,gelb,blue,0,NA,NA,NA,NA,0,5,5,NA,NA,NA,NA,NA,NA,sub-98027824
NA,NA,NA,NA,gelb,red,0,NA,NA,NA,NA,0,6,6,NA,NA,NA,NA,NA,NA,sub-98027824
NA,NA,NA,NA,blau,red,0,NA,NA,NA,NA,0,7,7,NA,NA,NA,NA,NA,NA,sub-98027824
NA,NA,NA,NA,gelb,yellow,1,NA,NA,NA,NA,0,8,8,NA,NA,NA,NA,NA,NA,sub-98027824
NA,NA,NA,NA,gelb,yellow,1,NA,NA,NA,NA,0,9,9,NA,NA,NA,NA,NA,NA,sub-98027824
NA,NA,NA,NA,blau,blue,1,NA,NA,NA,NA,0,10,10,NA,NA,NA,NA,NA,NA,sub-98027824
NA,NA,NA,NA,rot,blue,0,NA,NA,NA,NA,0,11,11,NA,NA,NA,NA,NA,NA,sub-98027824
NA,NA,NA,NA,blau,blue,1,NA,NA,NA,NA,1,0,12,NA,NA,NA,NA,NA,NA,sub-98027824
NA,NA,NA,NA,gelb,yellow,1,NA,NA,NA,NA,1,1,13,NA,NA,NA,NA,NA,NA,sub-98027824
NA,NA,NA,NA,gelb,blue,0,NA,NA,NA,NA,1,2,14,NA,NA,NA,NA,NA,NA,sub-98027824
NA,NA,NA,NA,rot,red,1,NA,NA,NA,NA,1,3,15,NA,NA,NA,NA,NA,NA,sub-98027824
NA,NA,NA,NA,gelb,red,0,NA,NA,NA,NA,1,4,16,NA,NA,NA,NA,NA,NA,sub-98027824
NA,NA,NA,NA,blau,red,0,NA,NA,NA,NA,1,5,17,NA,NA,NA,NA,NA,NA,sub-98027824
NA,NA,NA,NA,gelb,yellow,1,NA,NA,NA,NA,1,6,18,NA,NA,NA,NA,NA,NA,sub-98027824
NA,NA,NA,NA,rot,yellow,0,NA,NA,NA,NA,1,7,19,NA,NA,NA,NA,NA,NA,sub-98027824
NA,NA,NA,NA,rot,red,1,NA,NA,NA,NA,1,8,20,NA,NA,NA,NA,NA,NA,sub-98027824
NA,NA,NA,NA,blau,blue,1,NA,NA,NA,NA,1,9,21,NA,NA,NA,NA,NA,NA,sub-98027824
NA,NA,NA,NA,rot,blue,0,NA,NA,NA,NA,1,10,22,NA,NA,NA,NA,NA,NA,sub-98027824
NA,NA,NA,NA,blau,yellow,0,NA,NA,NA,NA,1,11,23,NA,NA,NA,NA,NA,NA,sub-98027824
NA,NA,NA,NA,NA,NA,NA,NA,NA,NA,NA,NA,NA,NA,NA,NA,NA,NA,NA,NA,sub-98027824
NA,NA,NA,NA,NA,NA,NA,gelb,red,r,0,NA,NA,NA,0,0,0,r,1,1.145413990000634,sub-98027824
NA,NA,NA,NA,NA,NA,NA,rot,red,r,1,NA,NA,NA,0,1,1,r,1,0.8435471789998701,sub-98027824
NA,NA,NA,NA,NA,NA,NA,rot,red,r,1,NA,NA,NA,0,2,2,r,1,0.8676431410003715,sub-98027824
NA,NA,NA,NA,NA,NA,NA,rot,blue,b,0,NA,NA,NA,0,3,3,b,1,1.3222014250004577,sub-98027824
NA,NA,NA,NA,NA,NA,NA,blau,yellow,g,0,NA,NA,NA,0,4,4,g,1,1.6212886580005943,sub-98027824
NA,NA,NA,NA,NA,NA,NA,rot,yellow,g,0,NA,NA,NA,0,5,5,g,1,0.8649393890000283,sub-98027824
NA,NA,NA,NA,NA,NA,NA,blau,blue,b,1,NA,NA,NA,0,6,6,b,1,0.6581279099991661,sub-98027824
NA,NA,NA,NA,NA,NA,NA,gelb,blue,b,0,NA,NA,NA,0,7,7,b,1,1.273333723000178,sub-98027824
NA,NA,NA,NA,NA,NA,NA,blau,red,r,0,NA,NA,NA,0,8,8,r,1,0.7779285269998581,sub-98027824
NA,NA,NA,NA,NA,NA,NA,gelb,yellow,g,1,NA,NA,NA,0,9,9,g,1,1.2119527700006074,sub-98027824
NA,NA,NA,NA,NA,NA,NA,blau,blue,b,1,NA,NA,NA,0,10,10,b,1,0.8589439309998852,sub-98027824
NA,NA,NA,NA,NA,NA,NA,gelb,yellow,g,1,NA,NA,NA,0,11,11,g,1,0.6992667699996673,sub-98027824
NA,NA,NA,NA,NA,NA,NA,rot,yellow,g,0,NA,NA,NA,1,0,12,g,1,0.987484298999334,sub-98027824
NA,NA,NA,NA,NA,NA,NA,rot,red,r,1,NA,NA,NA,1,1,13,r,1,0.7903235359999599,sub-98027824
NA,NA,NA,NA,NA,NA,NA,rot,red,r,1,NA,NA,NA,1,2,14,r,1,0.6445753199996034,sub-98027824
NA,NA,NA,NA,NA,NA,NA,blau,red,r,0,NA,NA,NA,1,3,15,r,1,0.6065296300002956,sub-98027824
NA,NA,NA,NA,NA,NA,NA,gelb,yellow,g,1,NA,NA,NA,1,4,16,g,1,0.6744093110000904,sub-98027824
NA,NA,NA,NA,NA,NA,NA,gelb,blue,b,0,NA,NA,NA,1,5,17,g,0,0.8927584120001484,sub-98027824
NA,NA,NA,NA,NA,NA,NA,blau,blue,b,1,NA,NA,NA,1,6,18,b,1,0.9105377839996436,sub-98027824
NA,NA,NA,NA,NA,NA,NA,blau,blue,b,1,NA,NA,NA,1,7,19,b,1,0.7775996109994594,sub-98027824
NA,NA,NA,NA,NA,NA,NA,blau,yellow,g,0,NA,NA,NA,1,8,20,g,1,1.2411267039997256,sub-98027824
NA,NA,NA,NA,NA,NA,NA,rot,blue,b,0,NA,NA,NA,1,9,21,b,1,1.2017116729994086,sub-98027824
NA,NA,NA,NA,NA,NA,NA,gelb,yellow,g,1,NA,NA,NA,1,10,22,g,1,0.8772364140004356,sub-98027824
NA,NA,NA,NA,NA,NA,NA,gelb,red,r,0,NA,NA,NA,1,11,23,r,1,1.2377301460001036,sub-98027824
NA,NA,NA,NA,NA,NA,NA,blau,blue,b,1,NA,NA,NA,2,0,24,b,1,1.241287087999808,sub-98027824
NA,NA,NA,NA,NA,NA,NA,gelb,yellow,g,1,NA,NA,NA,2,1,25,g,1,1.4260026740003011,sub-98027824
NA,NA,NA,NA,NA,NA,NA,rot,yellow,g,0,NA,NA,NA,2,2,26,g,1,1.151863873000366,sub-98027824
NA,NA,NA,NA,NA,NA,NA,rot,red,r,1,NA,NA,NA,2,3,27,r,1,0.6434697020004023,sub-98027824
NA,NA,NA,NA,NA,NA,NA,rot,blue,b,0,NA,NA,NA,2,4,28,b,1,0.8668531849998544,sub-98027824
NA,NA,NA,NA,NA,NA,NA,gelb,red,r,0,NA,NA,NA,2,5,29,r,1,0.7832318860000669,sub-98027824
NA,NA,NA,NA,NA,NA,NA,gelb,yellow,g,1,NA,NA,NA,2,6,30,g,1,0.664186260999486,sub-98027824
NA,NA,NA,NA,NA,NA,NA,blau,blue,b,1,NA,NA,NA,2,7,31,b,1,1.1944591760002368,sub-98027824
NA,NA,NA,NA,NA,NA,NA,rot,red,r,1,NA,NA,NA,2,8,32,r,1,1.3303926010003124,sub-98027824
NA,NA,NA,NA,NA,NA,NA,gelb,blue,b,0,NA,NA,NA,2,9,33,b,1,1.004597045999617,sub-98027824
NA,NA,NA,NA,NA,NA,NA,blau,yellow,g,0,NA,NA,NA,2,10,34,g,1,0.8278530569996292,sub-98027824
NA,NA,NA,NA,NA,NA,NA,blau,red,r,0,NA,NA,NA,2,11,35,r,1,0.6601597210001273,sub-98027824
NA,NA,NA,NA,NA,NA,NA,blau,blue,b,1,NA,NA,NA,3,0,36,b,1,0.5981449150003755,sub-98027824
NA,NA,NA,NA,NA,NA,NA,gelb,yellow,g,1,NA,NA,NA,3,1,37,g,1,0.5316002059998937,sub-98027824
NA,NA,NA,NA,NA,NA,NA,gelb,blue,b,0,NA,NA,NA,3,2,38,b,1,0.6148962920005943,sub-98027824
NA,NA,NA,NA,NA,NA,NA,rot,yellow,g,0,NA,NA,NA,3,3,39,g,1,0.8198082130002149,sub-98027824
NA,NA,NA,NA,NA,NA,NA,blau,blue,b,1,NA,NA,NA,3,4,40,b,1,0.574120075000792,sub-98027824
NA,NA,NA,NA,NA,NA,NA,blau,red,r,0,NA,NA,NA,3,5,41,r,1,0.4872657209998579,sub-98027824
NA,NA,NA,NA,NA,NA,NA,rot,red,r,1,NA,NA,NA,3,6,42,r,1,0.6032596699997157,sub-98027824
NA,NA,NA,NA,NA,NA,NA,blau,yellow,g,0,NA,NA,NA,3,7,43,g,1,0.9430700140001136,sub-98027824
NA,NA,NA,NA,NA,NA,NA,gelb,yellow,g,1,NA,NA,NA,3,8,44,g,1,0.4317424290002237,sub-98027824
NA,NA,NA,NA,NA,NA,NA,rot,blue,b,0,NA,NA,NA,3,9,45,b,1,1.0447462989995984,sub-98027824
NA,NA,NA,NA,NA,NA,NA,gelb,red,r,0,NA,NA,NA,3,10,46,r,1,0.45147219899990887,sub-98027824
NA,NA,NA,NA,NA,NA,NA,rot,red,r,1,NA,NA,NA,3,11,47,r,1,0.4614692519999153,sub-98027824
NA,NA,NA,NA,NA,NA,NA,blau,blue,b,1,NA,NA,NA,4,0,48,b,1,0.550454352000088,sub-98027824
NA,NA,NA,NA,NA,NA,NA,gelb,red,r,0,NA,NA,NA,4,1,49,r,1,0.938595886999792,sub-98027824
NA,NA,NA,NA,NA,NA,NA,rot,yellow,g,0,NA,NA,NA,4,2,50,g,1,0.8170157459999245,sub-98027824
NA,NA,NA,NA,NA,NA,NA,blau,yellow,g,0,NA,NA,NA,4,3,51,g,1,0.4766847720002261,sub-98027824
NA,NA,NA,NA,NA,NA,NA,rot,blue,b,0,NA,NA,NA,4,4,52,b,1,0.5496509280001192,sub-98027824
NA,NA,NA,NA,NA,NA,NA,gelb,yellow,g,1,NA,NA,NA,4,5,53,g,1,0.4795258280000781,sub-98027824
NA,NA,NA,NA,NA,NA,NA,gelb,blue,b,0,NA,NA,NA,4,6,54,b,1,1.285181422000278,sub-98027824
NA,NA,NA,NA,NA,NA,NA,rot,red,r,1,NA,NA,NA,4,7,55,r,1,0.6001810560001104,sub-98027824
NA,NA,NA,NA,NA,NA,NA,blau,red,r,0,NA,NA,NA,4,8,56,r,1,0.5618984809998437,sub-98027824
NA,NA,NA,NA,NA,NA,NA,gelb,yellow,g,1,NA,NA,NA,4,9,57,g,1,0.506472228000348,sub-98027824
NA,NA,NA,NA,NA,NA,NA,blau,blue,b,1,NA,NA,NA,4,10,58,b,1,0.4264290450000772,sub-98027824
NA,NA,NA,NA,NA,NA,NA,rot,red,r,1,NA,NA,NA,4,11,59,r,1,0.6251626250004847,sub-98027824
NA,NA,NA,NA,NA,NA,NA,blau,red,r,0,NA,NA,NA,5,0,60,r,1,0.695965468000395,sub-98027824
NA,NA,NA,NA,NA,NA,NA,rot,red,r,1,NA,NA,NA,5,1,61,r,1,0.6682163759996911,sub-98027824
NA,NA,NA,NA,NA,NA,NA,gelb,red,r,0,NA,NA,NA,5,2,62,r,1,0.8576870249999047,sub-98027824
NA,NA,NA,NA,NA,NA,NA,gelb,yellow,g,1,NA,NA,NA,5,3,63,g,1,1.2219276519999769,sub-98027824
NA,NA,NA,NA,NA,NA,NA,gelb,blue,b,0,NA,NA,NA,5,4,64,b,1,0.5686236049996296,sub-98027824
NA,NA,NA,NA,NA,NA,NA,blau,yellow,g,0,NA,NA,NA,5,5,65,g,1,0.6980813239997588,sub-98027824
NA,NA,NA,NA,NA,NA,NA,rot,yellow,g,0,NA,NA,NA,5,6,66,g,1,0.5819070340003236,sub-98027824
NA,NA,NA,NA,NA,NA,NA,blau,blue,b,1,NA,NA,NA,5,7,67,b,1,0.5712702249993526,sub-98027824
NA,NA,NA,NA,NA,NA,NA,rot,blue,b,0,NA,NA,NA,5,8,68,b,1,0.7429289809997499,sub-98027824
NA,NA,NA,NA,NA,NA,NA,blau,blue,b,1,NA,NA,NA,5,9,69,b,1,0.5804078979999758,sub-98027824
NA,NA,NA,NA,NA,NA,NA,gelb,yellow,g,1,NA,NA,NA,5,10,70,g,1,1.0636154800004078,sub-98027824
NA,NA,NA,NA,NA,NA,NA,rot,red,r,1,NA,NA,NA,5,11,71,r,1,0.46318561699990823,sub-98027824
NA,NA,NA,NA,NA,NA,NA,blau,red,r,0,NA,NA,NA,6,0,72,r,1,0.4768065090001983,sub-98027824
NA,NA,NA,NA,NA,NA,NA,blau,yellow,g,0,NA,NA,NA,6,1,73,g,1,0.6883595919998697,sub-98027824
NA,NA,NA,NA,NA,NA,NA,gelb,yellow,g,1,NA,NA,NA,6,2,74,g,1,0.5830906099999993,sub-98027824
NA,NA,NA,NA,NA,NA,NA,rot,blue,b,0,NA,NA,NA,6,3,75,b,1,0.7740513910002846,sub-98027824
NA,NA,NA,NA,NA,NA,NA,gelb,yellow,g,1,NA,NA,NA,6,4,76,g,1,0.4992559470001652,sub-98027824
NA,NA,NA,NA,NA,NA,NA,gelb,red,r,0,NA,NA,NA,6,5,77,r,1,0.471365164999952,sub-98027824
NA,NA,NA,NA,NA,NA,NA,gelb,blue,b,0,NA,NA,NA,6,6,78,b,1,0.3706319490001988,sub-98027824
NA,NA,NA,NA,NA,NA,NA,rot,red,r,1,NA,NA,NA,6,7,79,r,1,0.5357592020000084,sub-98027824
NA,NA,NA,NA,NA,NA,NA,blau,blue,b,1,NA,NA,NA,6,8,80,b,1,0.46009202799996274,sub-98027824
NA,NA,NA,NA,NA,NA,NA,rot,red,r,1,NA,NA,NA,6,9,81,r,1,0.7231002930002433,sub-98027824
NA,NA,NA,NA,NA,NA,NA,blau,blue,b,1,NA,NA,NA,6,10,82,b,1,0.395779916999345,sub-98027824
NA,NA,NA,NA,NA,NA,NA,rot,yellow,g,0,NA,NA,NA,6,11,83,g,1,0.5026667150004869,sub-98027824
NA,NA,NA,NA,NA,NA,NA,gelb,yellow,g,1,NA,NA,NA,7,0,84,g,1,0.5725998870002513,sub-98027824
NA,NA,NA,NA,NA,NA,NA,blau,blue,b,1,NA,NA,NA,7,1,85,b,1,0.5773466500004361,sub-98027824
NA,NA,NA,NA,NA,NA,NA,blau,blue,b,1,NA,NA,NA,7,2,86,b,1,0.5558821109998462,sub-98027824
NA,NA,NA,NA,NA,NA,NA,rot,red,r,1,NA,NA,NA,7,3,87,r,1,0.6777673070000674,sub-98027824
NA,NA,NA,NA,NA,NA,NA,rot,red,r,1,NA,NA,NA,7,4,88,r,1,0.42821498299963423,sub-98027824
NA,NA,NA,NA,NA,NA,NA,rot,yellow,g,0,NA,NA,NA,7,5,89,g,1,0.7103635209996355,sub-98027824
NA,NA,NA,NA,NA,NA,NA,blau,red,r,0,NA,NA,NA,7,6,90,r,1,0.49891557000046305,sub-98027824
NA,NA,NA,NA,NA,NA,NA,gelb,yellow,g,1,NA,NA,NA,7,7,91,g,1,1.020055133999449,sub-98027824
NA,NA,NA,NA,NA,NA,NA,gelb,red,r,0,NA,NA,NA,7,8,92,r,1,0.522596827999223,sub-98027824
NA,NA,NA,NA,NA,NA,NA,gelb,blue,b,0,NA,NA,NA,7,9,93,b,1,0.5522234840000237,sub-98027824
NA,NA,NA,NA,NA,NA,NA,rot,blue,b,0,NA,NA,NA,7,10,94,r,0,0.5855983689998538,sub-98027824
NA,NA,NA,NA,NA,NA,NA,blau,yellow,g,0,NA,NA,NA,7,11,95,g,1,0.8967114410006616,sub-98027824
NA,NA,NA,NA,NA,NA,NA,blau,red,r,0,NA,NA,NA,8,0,96,r,1,1.3517214680005054,sub-98027824
NA,NA,NA,NA,NA,NA,NA,gelb,yellow,g,1,NA,NA,NA,8,1,97,g,1,0.6942883159999838,sub-98027824
NA,NA,NA,NA,NA,NA,NA,blau,blue,b,1,NA,NA,NA,8,2,98,b,1,0.8565137329997015,sub-98027824
NA,NA,NA,NA,NA,NA,NA,gelb,yellow,g,1,NA,NA,NA,8,3,99,g,1,0.6501924799995322,sub-98027824
NA,NA,NA,NA,NA,NA,NA,gelb,blue,b,0,NA,NA,NA,8,4,100,b,1,0.6407164639995244,sub-98027824
NA,NA,NA,NA,NA,NA,NA,blau,blue,b,1,NA,NA,NA,8,5,101,b,1,0.8144530710005711,sub-98027824
NA,NA,NA,NA,NA,NA,NA,blau,yellow,g,0,NA,NA,NA,8,6,102,g,1,0.7198125940003592,sub-98027824
NA,NA,NA,NA,NA,NA,NA,gelb,red,r,0,NA,NA,NA,8,7,103,r,1,1.275890819999404,sub-98027824
NA,NA,NA,NA,NA,NA,NA,rot,blue,b,0,NA,NA,NA,8,8,104,b,1,1.6548484770000869,sub-98027824
NA,NA,NA,NA,NA,NA,NA,rot,red,r,1,NA,NA,NA,8,9,105,r,1,0.7025252639996324,sub-98027824
NA,NA,NA,NA,NA,NA,NA,rot,red,r,1,NA,NA,NA,8,10,106,r,1,0.6353584519993092,sub-98027824
NA,NA,NA,NA,NA,NA,NA,rot,yellow,g,0,NA,NA,NA,8,11,107,g,1,0.7938206449998688,sub-98027824
NA,NA,NA,NA,NA,NA,NA,rot,yellow,g,0,NA,NA,NA,9,0,108,g,1,0.552058438000131,sub-98027824
NA,NA,NA,NA,NA,NA,NA,gelb,blue,b,0,NA,NA,NA,9,1,109,b,1,0.6877276660006828,sub-98027824
NA,NA,NA,NA,NA,NA,NA,gelb,yellow,g,1,NA,NA,NA,9,2,110,g,1,0.8225389740000537,sub-98027824
NA,NA,NA,NA,NA,NA,NA,blau,red,r,0,NA,NA,NA,9,3,111,r,1,0.8012443210000129,sub-98027824
NA,NA,NA,NA,NA,NA,NA,gelb,yellow,g,1,NA,NA,NA,9,4,112,g,1,0.4692387929999313,sub-98027824
NA,NA,NA,NA,NA,NA,NA,blau,yellow,g,0,NA,NA,NA,9,5,113,g,1,0.7266751119996115,sub-98027824
NA,NA,NA,NA,NA,NA,NA,rot,red,r,1,NA,NA,NA,9,6,114,r,1,0.5514451429999099,sub-98027824
NA,NA,NA,NA,NA,NA,NA,rot,blue,b,0,NA,NA,NA,9,7,115,b,1,0.6139223170002879,sub-98027824
NA,NA,NA,NA,NA,NA,NA,blau,blue,b,1,NA,NA,NA,9,8,116,b,1,0.5238850430005186,sub-98027824
NA,NA,NA,NA,NA,NA,NA,gelb,red,r,0,NA,NA,NA,9,9,117,r,1,0.7806675570000152,sub-98027824
NA,NA,NA,NA,NA,NA,NA,blau,blue,b,1,NA,NA,NA,9,10,118,b,1,0.5541273729995737,sub-98027824
NA,NA,NA,NA,NA,NA,NA,rot,red,r,1,NA,NA,NA,9,11,119,r,1,0.4903619599999729,sub-98027824
NA,NA,NA,NA,NA,NA,NA,NA,NA,NA,NA,NA,NA,NA,NA,NA,NA,NA,NA,NA,sub-98027824
