wordCTK,colorCTK,corrAnsCTK,congruentCTK,wordPractice,colorPractice,congruentPractice,word,color,corrAns,congruent,trials_practice.thisRepN,trials_practice.thisTrialN,trials_practice.thisN,trials_test.thisRepN,trials_test.thisTrialN,trials_test.thisN,keyResp_test_run.keys,keyResp_test_run.corr,keyResp_test_run.rt,participant
NA,NA,NA,NA,NA,NA,NA,NA,NA,NA,NA,NA,NA,NA,NA,NA,NA,NA,NA,NA,sub-94875299
NA,NA,NA,NA,NA,NA,NA,NA,NA,NA,NA,NA,NA,NA,NA,NA,NA,NA,NA,NA,sub-94875299
test,yellow,g,1,NA,NA,NA,NA,NA,NA,NA,NA,NA,NA,NA,NA,NA,NA,NA,NA,sub-94875299
test,blue,b,1,NA,NA,NA,NA,NA,NA,NA,NA,NA,NA,NA,NA,NA,NA,NA,NA,sub-94875299
test,red,r,1,NA,NA,NA,NA,NA,NA,NA,NA,NA,NA,NA,NA,NA,NA,NA,NA,sub-94875299
test,red,r,1,NA,NA,NA,NA,NA,NA,NA,NA,NA,NA,NA,NA,NA,NA,NA,NA,sub-94875299
test,blue,b,1,NA,NA,NA,NA,NA,NA,NA,NA,NA,NA,NA,NA,NA,NA,NA,NA,sub-94875299
test,yellow,g,1,NA,NA,NA,NA,NA,NA,NA,NA,NA,NA,NA,NA,NA,NA,NA,NA,sub-94875299
test,blue,b,1,NA,NA,NA,NA,NA,NA,NA,NA,NA,NA,NA,NA,NA,NA,NA,NA,sub-94875299
test,red,r,1,NA,NA,NA,NA,NA,NA,NA,NA,NA,NA,NA,NA,NA,NA,NA,NA,sub-94875299
test,yellow,g,1,NA,NA,NA,NA,NA,NA,NA,NA,NA,NA,NA,NA,NA,NA,NA,NA,sub-94875299
test,yellow,g,1,NA,NA,NA,NA,NA,NA,NA,NA,NA,NA,NA,NA,NA,NA,NA,NA,sub-94875299
test,blue,b,1,NA,NA,NA,NA,NA,NA,NA,NA,NA,NA,NA,NA,NA,NA,NA,NA,sub-94875299
test,red,r,1,NA,NA,NA,NA,NA,NA,NA,NA,NA,NA,NA,NA,NA,NA,NA,NA,sub-94875299
NA,NA,NA,NA,NA,NA,NA,NA,NA,NA,NA,NA,NA,NA,NA,NA,NA,NA,NA,NA,sub-94875299
NA,NA,NA,NA,blau,blue,1,NA,NA,NA,NA,0,0,0,NA,NA,NA,NA,NA,NA,sub-94875299
NA,NA,NA,NA,gelb,yellow,1,NA,NA,NA,NA,0,1,1,NA,NA,NA,NA,NA,NA,sub-94875299
NA,NA,NA,NA,rot,red,1,NA,NA,NA,NA,0,2,2,NA,NA,NA,NA,NA,NA,sub-94875299
NA,NA,NA,NA,blau,blue,1,NA,NA,NA,NA,0,3,3,NA,NA,NA,NA,NA,NA,sub-94875299
NA,NA,NA,NA,gelb,yellow,1,NA,NA,NA,NA,0,4,4,NA,NA,NA,NA,NA,NA,sub-94875299
NA,NA,NA,NA,rot,yellow,0,NA,NA,NA,NA,0,5,5,NA,NA,NA,NA,NA,NA,sub-94875299
NA,NA,NA,NA,gelb,red,0,NA,NA,NA,NA,0,6,6,NA,NA,NA,NA,NA,NA,sub-94875299
NA,NA,NA,NA,blau,red,0,NA,NA,NA,NA,0,7,7,NA,NA,NA,NA,NA,NA,sub-94875299
NA,NA,NA,NA,rot,blue,0,NA,NA,NA,NA,0,8,8,NA,NA,NA,NA,NA,NA,sub-94875299
NA,NA,NA,NA,gelb,blue,0,NA,NA,NA,NA,0,9,9,NA,NA,NA,NA,NA,NA,sub-94875299
NA,NA,NA,NA,blau,yellow,0,NA,NA,NA,NA,0,10,10,NA,NA,NA,NA,NA,NA,sub-94875299
NA,NA,NA,NA,rot,red,1,NA,NA,NA,NA,0,11,11,NA,NA,NA,NA,NA,NA,sub-94875299
NA,NA,NA,NA,rot,blue,0,NA,NA,NA,NA,1,0,12,NA,NA,NA,NA,NA,NA,sub-94875299
NA,NA,NA,NA,blau,blue,1,NA,NA,NA,NA,1,1,13,NA,NA,NA,NA,NA,NA,sub-94875299
NA,NA,NA,NA,rot,yellow,0,NA,NA,NA,NA,1,2,14,NA,NA,NA,NA,NA,NA,sub-94875299
NA,NA,NA,NA,gelb,red,0,NA,NA,NA,NA,1,3,15,NA,NA,NA,NA,NA,NA,sub-94875299
NA,NA,NA,NA,gelb,blue,0,NA,NA,NA,NA,1,4,16,NA,NA,NA,NA,NA,NA,sub-94875299
NA,NA,NA,NA,blau,red,0,NA,NA,NA,NA,1,5,17,NA,NA,NA,NA,NA,NA,sub-94875299
NA,NA,NA,NA,gelb,yellow,1,NA,NA,NA,NA,1,6,18,NA,NA,NA,NA,NA,NA,sub-94875299
NA,NA,NA,NA,gelb,yellow,1,NA,NA,NA,NA,1,7,19,NA,NA,NA,NA,NA,NA,sub-94875299
NA,NA,NA,NA,rot,red,1,NA,NA,NA,NA,1,8,20,NA,NA,NA,NA,NA,NA,sub-94875299
NA,NA,NA,NA,rot,red,1,NA,NA,NA,NA,1,9,21,NA,NA,NA,NA,NA,NA,sub-94875299
NA,NA,NA,NA,blau,blue,1,NA,NA,NA,NA,1,10,22,NA,NA,NA,NA,NA,NA,sub-94875299
NA,NA,NA,NA,blau,yellow,0,NA,NA,NA,NA,1,11,23,NA,NA,NA,NA,NA,NA,sub-94875299
NA,NA,NA,NA,NA,NA,NA,NA,NA,NA,NA,NA,NA,NA,NA,NA,NA,NA,NA,NA,sub-94875299
NA,NA,NA,NA,NA,NA,NA,blau,blue,b,1,NA,NA,NA,0,0,0,b,1,0.6010956,sub-94875299
NA,NA,NA,NA,NA,NA,NA,rot,blue,b,0,NA,NA,NA,0,1,1,b,1,0.5972055,sub-94875299
NA,NA,NA,NA,NA,NA,NA,blau,yellow,g,0,NA,NA,NA,0,2,2,g,1,0.7914201,sub-94875299
NA,NA,NA,NA,NA,NA,NA,gelb,yellow,g,1,NA,NA,NA,0,3,3,g,1,0.5442867,sub-94875299
NA,NA,NA,NA,NA,NA,NA,blau,red,r,0,NA,NA,NA,0,4,4,r,1,0.4088328,sub-94875299
NA,NA,NA,NA,NA,NA,NA,gelb,red,r,0,NA,NA,NA,0,5,5,r,1,0.5072253,sub-94875299
NA,NA,NA,NA,NA,NA,NA,rot,red,r,1,NA,NA,NA,0,6,6,r,1,0.4740225,sub-94875299
NA,NA,NA,NA,NA,NA,NA,gelb,yellow,g,1,NA,NA,NA,0,7,7,g,1,0.3856477,sub-94875299
NA,NA,NA,NA,NA,NA,NA,rot,red,r,1,NA,NA,NA,0,8,8,r,1,0.597645,sub-94875299
NA,NA,NA,NA,NA,NA,NA,blau,blue,b,1,NA,NA,NA,0,9,9,b,1,0.7431748,sub-94875299
NA,NA,NA,NA,NA,NA,NA,rot,yellow,g,0,NA,NA,NA,0,10,10,g,1,0.5974872,sub-94875299
NA,NA,NA,NA,NA,NA,NA,gelb,blue,b,0,NA,NA,NA,0,11,11,b,1,0.777973,sub-94875299
NA,NA,NA,NA,NA,NA,NA,gelb,red,r,0,NA,NA,NA,1,0,12,r,1,0.5708488,sub-94875299
NA,NA,NA,NA,NA,NA,NA,gelb,yellow,g,1,NA,NA,NA,1,1,13,g,1,0.6147604,sub-94875299
NA,NA,NA,NA,NA,NA,NA,gelb,blue,b,0,NA,NA,NA,1,2,14,b,1,0.7426284,sub-94875299
NA,NA,NA,NA,NA,NA,NA,gelb,yellow,g,1,NA,NA,NA,1,3,15,g,1,0.6633754,sub-94875299
NA,NA,NA,NA,NA,NA,NA,blau,red,r,0,NA,NA,NA,1,4,16,r,1,0.6829767,sub-94875299
NA,NA,NA,NA,NA,NA,NA,rot,red,r,1,NA,NA,NA,1,5,17,r,1,0.5910124,sub-94875299
NA,NA,NA,NA,NA,NA,NA,rot,red,r,1,NA,NA,NA,1,6,18,r,1,0.4763589,sub-94875299
NA,NA,NA,NA,NA,NA,NA,blau,blue,b,1,NA,NA,NA,1,7,19,b,1,0.5347904,sub-94875299
NA,NA,NA,NA,NA,NA,NA,rot,yellow,g,0,NA,NA,NA,1,8,20,g,1,0.5332612,sub-94875299
NA,NA,NA,NA,NA,NA,NA,blau,blue,b,1,NA,NA,NA,1,9,21,b,1,0.4377858,sub-94875299
NA,NA,NA,NA,NA,NA,NA,blau,yellow,g,0,NA,NA,NA,1,10,22,g,1,0.6989295,sub-94875299
NA,NA,NA,NA,NA,NA,NA,rot,blue,b,0,NA,NA,NA,1,11,23,b,1,0.4827322,sub-94875299
NA,NA,NA,NA,NA,NA,NA,gelb,yellow,g,1,NA,NA,NA,2,0,24,g,1,0.5051573,sub-94875299
NA,NA,NA,NA,NA,NA,NA,blau,blue,b,1,NA,NA,NA,2,1,25,b,1,0.5799737,sub-94875299
NA,NA,NA,NA,NA,NA,NA,gelb,red,r,0,NA,NA,NA,2,2,26,r,1,0.5039445,sub-94875299
NA,NA,NA,NA,NA,NA,NA,gelb,yellow,g,1,NA,NA,NA,2,3,27,g,1,0.486543,sub-94875299
NA,NA,NA,NA,NA,NA,NA,gelb,blue,b,0,NA,NA,NA,2,4,28,b,1,0.374077,sub-94875299
NA,NA,NA,NA,NA,NA,NA,rot,yellow,g,0,NA,NA,NA,2,5,29,g,1,0.3991562,sub-94875299
NA,NA,NA,NA,NA,NA,NA,rot,red,r,1,NA,NA,NA,2,6,30,r,1,0.3129577,sub-94875299
NA,NA,NA,NA,NA,NA,NA,blau,blue,b,1,NA,NA,NA,2,7,31,b,1,0.8128432,sub-94875299
NA,NA,NA,NA,NA,NA,NA,rot,blue,b,0,NA,NA,NA,2,8,32,b,1,0.7396025,sub-94875299
NA,NA,NA,NA,NA,NA,NA,rot,red,r,1,NA,NA,NA,2,9,33,r,1,0.5897561,sub-94875299
NA,NA,NA,NA,NA,NA,NA,blau,yellow,g,0,NA,NA,NA,2,10,34,g,1,0.7239061,sub-94875299
NA,NA,NA,NA,NA,NA,NA,blau,red,r,0,NA,NA,NA,2,11,35,r,1,0.7000116,sub-94875299
NA,NA,NA,NA,NA,NA,NA,rot,red,r,1,NA,NA,NA,3,0,36,r,1,0.648248,sub-94875299
NA,NA,NA,NA,NA,NA,NA,blau,blue,b,1,NA,NA,NA,3,1,37,b,1,0.5580545,sub-94875299
NA,NA,NA,NA,NA,NA,NA,blau,red,r,0,NA,NA,NA,3,2,38,r,1,0.6037939,sub-94875299
NA,NA,NA,NA,NA,NA,NA,blau,blue,b,1,NA,NA,NA,3,3,39,b,1,0.4222311,sub-94875299
NA,NA,NA,NA,NA,NA,NA,gelb,yellow,g,1,NA,NA,NA,3,4,40,r,0,0.5194705,sub-94875299
NA,NA,NA,NA,NA,NA,NA,gelb,blue,b,0,NA,NA,NA,3,5,41,b,1,1.0302767,sub-94875299
NA,NA,NA,NA,NA,NA,NA,blau,yellow,g,0,NA,NA,NA,3,6,42,b,0,0.7516766,sub-94875299
NA,NA,NA,NA,NA,NA,NA,gelb,red,r,0,NA,NA,NA,3,7,43,r,1,0.7851572,sub-94875299
NA,NA,NA,NA,NA,NA,NA,rot,red,r,1,NA,NA,NA,3,8,44,r,1,0.8264124,sub-94875299
NA,NA,NA,NA,NA,NA,NA,gelb,yellow,g,1,NA,NA,NA,3,9,45,g,1,0.6538203,sub-94875299
NA,NA,NA,NA,NA,NA,NA,rot,blue,b,0,NA,NA,NA,3,10,46,b,1,0.6115953,sub-94875299
NA,NA,NA,NA,NA,NA,NA,rot,yellow,g,0,NA,NA,NA,3,11,47,g,1,0.7974606,sub-94875299
NA,NA,NA,NA,NA,NA,NA,blau,red,r,0,NA,NA,NA,4,0,48,r,1,0.4801701,sub-94875299
NA,NA,NA,NA,NA,NA,NA,rot,red,r,1,NA,NA,NA,4,1,49,r,1,0.6180804,sub-94875299
NA,NA,NA,NA,NA,NA,NA,blau,blue,b,1,NA,NA,NA,4,2,50,b,1,0.6008604,sub-94875299
NA,NA,NA,NA,NA,NA,NA,rot,red,r,1,NA,NA,NA,4,3,51,r,1,0.866445,sub-94875299
NA,NA,NA,NA,NA,NA,NA,rot,blue,b,0,NA,NA,NA,4,4,52,b,1,0.5789105,sub-94875299
NA,NA,NA,NA,NA,NA,NA,gelb,blue,b,0,NA,NA,NA,4,5,53,b,1,1.0911158,sub-94875299
NA,NA,NA,NA,NA,NA,NA,blau,yellow,g,0,NA,NA,NA,4,6,54,g,1,0.3502585,sub-94875299
NA,NA,NA,NA,NA,NA,NA,gelb,yellow,g,1,NA,NA,NA,4,7,55,g,1,0.7445953,sub-94875299
NA,NA,NA,NA,NA,NA,NA,gelb,yellow,g,1,NA,NA,NA,4,8,56,g,1,0.3834547,sub-94875299
NA,NA,NA,NA,NA,NA,NA,gelb,red,r,0,NA,NA,NA,4,9,57,r,1,1.1913847,sub-94875299
NA,NA,NA,NA,NA,NA,NA,blau,blue,b,1,NA,NA,NA,4,10,58,b,1,0.7865973,sub-94875299
NA,NA,NA,NA,NA,NA,NA,rot,yellow,g,0,NA,NA,NA,4,11,59,g,1,0.82636,sub-94875299
NA,NA,NA,NA,NA,NA,NA,blau,blue,b,1,NA,NA,NA,5,0,60,b,1,0.7147511,sub-94875299
NA,NA,NA,NA,NA,NA,NA,blau,red,r,0,NA,NA,NA,5,1,61,r,1,0.5772585,sub-94875299
NA,NA,NA,NA,NA,NA,NA,rot,blue,b,0,NA,NA,NA,5,2,62,b,1,0.7684396,sub-94875299
NA,NA,NA,NA,NA,NA,NA,blau,yellow,g,0,NA,NA,NA,5,3,63,g,1,0.8318099,sub-94875299
NA,NA,NA,NA,NA,NA,NA,rot,red,r,1,NA,NA,NA,5,4,64,r,1,0.6340108,sub-94875299
NA,NA,NA,NA,NA,NA,NA,gelb,yellow,g,1,NA,NA,NA,5,5,65,g,1,0.5869645,sub-94875299
NA,NA,NA,NA,NA,NA,NA,blau,blue,b,1,NA,NA,NA,5,6,66,b,1,0.4455507,sub-94875299
NA,NA,NA,NA,NA,NA,NA,gelb,blue,b,0,NA,NA,NA,5,7,67,b,1,0.5238166,sub-94875299
NA,NA,NA,NA,NA,NA,NA,gelb,yellow,g,1,NA,NA,NA,5,8,68,g,1,0.6893737,sub-94875299
NA,NA,NA,NA,NA,NA,NA,rot,red,r,1,NA,NA,NA,5,9,69,r,1,1.1526472,sub-94875299
NA,NA,NA,NA,NA,NA,NA,rot,yellow,g,0,NA,NA,NA,5,10,70,g,1,0.5607889,sub-94875299
NA,NA,NA,NA,NA,NA,NA,gelb,red,r,0,NA,NA,NA,5,11,71,r,1,0.6393981,sub-94875299
NA,NA,NA,NA,NA,NA,NA,rot,red,r,1,NA,NA,NA,6,0,72,r,1,0.5832532,sub-94875299
NA,NA,NA,NA,NA,NA,NA,gelb,blue,b,0,NA,NA,NA,6,1,73,b,1,0.5731471,sub-94875299
NA,NA,NA,NA,NA,NA,NA,blau,blue,b,1,NA,NA,NA,6,2,74,b,1,0.4663287,sub-94875299
NA,NA,NA,NA,NA,NA,NA,blau,red,r,0,NA,NA,NA,6,3,75,g,0,0.6307915,sub-94875299
NA,NA,NA,NA,NA,NA,NA,rot,red,r,1,NA,NA,NA,6,4,76,r,1,0.764905,sub-94875299
NA,NA,NA,NA,NA,NA,NA,gelb,yellow,g,1,NA,NA,NA,6,5,77,g,1,0.6851173,sub-94875299
NA,NA,NA,NA,NA,NA,NA,rot,blue,b,0,NA,NA,NA,6,6,78,b,1,0.5036997,sub-94875299
NA,NA,NA,NA,NA,NA,NA,rot,yellow,g,0,NA,NA,NA,6,7,79,g,1,0.8446877,sub-94875299
NA,NA,NA,NA,NA,NA,NA,gelb,red,r,0,NA,NA,NA,6,8,80,r,1,0.4779728,sub-94875299
NA,NA,NA,NA,NA,NA,NA,gelb,yellow,g,1,NA,NA,NA,6,9,81,g,1,0.7752585,sub-94875299
NA,NA,NA,NA,NA,NA,NA,blau,blue,b,1,NA,NA,NA,6,10,82,b,1,0.4040451,sub-94875299
NA,NA,NA,NA,NA,NA,NA,blau,yellow,g,0,NA,NA,NA,6,11,83,g,1,0.6505101,sub-94875299
NA,NA,NA,NA,NA,NA,NA,gelb,blue,b,0,NA,NA,NA,7,0,84,b,1,0.6661526,sub-94875299
NA,NA,NA,NA,NA,NA,NA,blau,blue,b,1,NA,NA,NA,7,1,85,b,1,0.5107431,sub-94875299
NA,NA,NA,NA,NA,NA,NA,blau,yellow,g,0,NA,NA,NA,7,2,86,g,1,0.6276032,sub-94875299
NA,NA,NA,NA,NA,NA,NA,gelb,yellow,g,1,NA,NA,NA,7,3,87,g,1,0.5501844,sub-94875299
NA,NA,NA,NA,NA,NA,NA,gelb,yellow,g,1,NA,NA,NA,7,4,88,g,1,0.6010721,sub-94875299
NA,NA,NA,NA,NA,NA,NA,rot,blue,b,0,NA,NA,NA,7,5,89,b,1,0.569212,sub-94875299
NA,NA,NA,NA,NA,NA,NA,rot,yellow,g,0,NA,NA,NA,7,6,90,b,0,0.7536748,sub-94875299
NA,NA,NA,NA,NA,NA,NA,gelb,red,r,0,NA,NA,NA,7,7,91,r,1,0.8805165,sub-94875299
NA,NA,NA,NA,NA,NA,NA,rot,red,r,1,NA,NA,NA,7,8,92,r,1,0.5194272,sub-94875299
NA,NA,NA,NA,NA,NA,NA,blau,red,r,0,NA,NA,NA,7,9,93,r,1,0.5413047,sub-94875299
NA,NA,NA,NA,NA,NA,NA,rot,red,r,1,NA,NA,NA,7,10,94,r,1,0.5057723,sub-94875299
NA,NA,NA,NA,NA,NA,NA,blau,blue,b,1,NA,NA,NA,7,11,95,b,1,0.6453887,sub-94875299
NA,NA,NA,NA,NA,NA,NA,rot,red,r,1,NA,NA,NA,8,0,96,r,1,0.6601299,sub-94875299
NA,NA,NA,NA,NA,NA,NA,blau,red,r,0,NA,NA,NA,8,1,97,r,1,0.5156107,sub-94875299
NA,NA,NA,NA,NA,NA,NA,gelb,yellow,g,1,NA,NA,NA,8,2,98,g,1,0.7972168,sub-94875299
NA,NA,NA,NA,NA,NA,NA,gelb,red,r,0,NA,NA,NA,8,3,99,r,1,0.647526,sub-94875299
NA,NA,NA,NA,NA,NA,NA,rot,blue,b,0,NA,NA,NA,8,4,100,b,1,0.6423133,sub-94875299
NA,NA,NA,NA,NA,NA,NA,gelb,yellow,g,1,NA,NA,NA,8,5,101,g,1,0.5823528,sub-94875299
NA,NA,NA,NA,NA,NA,NA,blau,yellow,g,0,NA,NA,NA,8,6,102,g,1,0.5203611,sub-94875299
NA,NA,NA,NA,NA,NA,NA,gelb,blue,b,0,NA,NA,NA,8,7,103,b,1,0.6006055,sub-94875299
NA,NA,NA,NA,NA,NA,NA,blau,blue,b,1,NA,NA,NA,8,8,104,b,1,0.3667495,sub-94875299
NA,NA,NA,NA,NA,NA,NA,rot,yellow,g,0,NA,NA,NA,8,9,105,g,1,0.6170991,sub-94875299
NA,NA,NA,NA,NA,NA,NA,rot,red,r,1,NA,NA,NA,8,10,106,r,1,0.4995323,sub-94875299
NA,NA,NA,NA,NA,NA,NA,blau,blue,b,1,NA,NA,NA,8,11,107,b,1,0.5013018,sub-94875299
NA,NA,NA,NA,NA,NA,NA,rot,red,r,1,NA,NA,NA,9,0,108,r,1,0.531836,sub-94875299
NA,NA,NA,NA,NA,NA,NA,gelb,blue,b,0,NA,NA,NA,9,1,109,b,1,0.5490906,sub-94875299
NA,NA,NA,NA,NA,NA,NA,gelb,yellow,g,1,NA,NA,NA,9,2,110,g,1,0.5817379,sub-94875299
NA,NA,NA,NA,NA,NA,NA,blau,blue,b,1,NA,NA,NA,9,3,111,b,1,0.6349619,sub-94875299
NA,NA,NA,NA,NA,NA,NA,gelb,yellow,g,1,NA,NA,NA,9,4,112,g,1,0.5402492,sub-94875299
NA,NA,NA,NA,NA,NA,NA,rot,blue,b,0,NA,NA,NA,9,5,113,b,1,0.6177127,sub-94875299
NA,NA,NA,NA,NA,NA,NA,gelb,red,r,0,NA,NA,NA,9,6,114,r,1,0.5806451,sub-94875299
NA,NA,NA,NA,NA,NA,NA,blau,red,r,0,NA,NA,NA,9,7,115,r,1,0.5544199,sub-94875299
NA,NA,NA,NA,NA,NA,NA,blau,yellow,g,0,NA,NA,NA,9,8,116,g,1,0.5214335,sub-94875299
NA,NA,NA,NA,NA,NA,NA,rot,yellow,g,0,NA,NA,NA,9,9,117,g,1,0.4603547,sub-94875299
NA,NA,NA,NA,NA,NA,NA,blau,blue,b,1,NA,NA,NA,9,10,118,b,1,0.5178004,sub-94875299
NA,NA,NA,NA,NA,NA,NA,rot,red,r,1,NA,NA,NA,9,11,119,r,1,0.5331866,sub-94875299
NA,NA,NA,NA,NA,NA,NA,NA,NA,NA,NA,NA,NA,NA,NA,NA,NA,NA,NA,NA,sub-94875299
