wordCTK,colorCTK,corrAnsCTK,congruentCTK,wordPractice,colorPractice,congruentPractice,word,color,corrAns,congruent,trials_practice.thisRepN,trials_practice.thisTrialN,trials_practice.thisN,trials_test.thisRepN,trials_test.thisTrialN,trials_test.thisN,keyResp_test_run.keys,keyResp_test_run.corr,keyResp_test_run.rt,participant
NA,NA,NA,NA,NA,NA,NA,NA,NA,NA,NA,NA,NA,NA,NA,NA,NA,NA,NA,NA,sub-74920117
NA,NA,NA,NA,NA,NA,NA,NA,NA,NA,NA,NA,NA,NA,NA,NA,NA,NA,NA,NA,sub-74920117
test,red,r,1,NA,NA,NA,NA,NA,NA,NA,NA,NA,NA,NA,NA,NA,NA,NA,NA,sub-74920117
test,yellow,g,1,NA,NA,NA,NA,NA,NA,NA,NA,NA,NA,NA,NA,NA,NA,NA,NA,sub-74920117
test,blue,b,1,NA,NA,NA,NA,NA,NA,NA,NA,NA,NA,NA,NA,NA,NA,NA,NA,sub-74920117
test,red,r,1,NA,NA,NA,NA,NA,NA,NA,NA,NA,NA,NA,NA,NA,NA,NA,NA,sub-74920117
test,blue,b,1,NA,NA,NA,NA,NA,NA,NA,NA,NA,NA,NA,NA,NA,NA,NA,NA,sub-74920117
test,yellow,g,1,NA,NA,NA,NA,NA,NA,NA,NA,NA,NA,NA,NA,NA,NA,NA,NA,sub-74920117
test,yellow,g,1,NA,NA,NA,NA,NA,NA,NA,NA,NA,NA,NA,NA,NA,NA,NA,NA,sub-74920117
test,red,r,1,NA,NA,NA,NA,NA,NA,NA,NA,NA,NA,NA,NA,NA,NA,NA,NA,sub-74920117
test,blue,b,1,NA,NA,NA,NA,NA,NA,NA,NA,NA,NA,NA,NA,NA,NA,NA,NA,sub-74920117
test,blue,b,1,NA,NA,NA,NA,NA,NA,NA,NA,NA,NA,NA,NA,NA,NA,NA,NA,sub-74920117
test,red,r,1,NA,NA,NA,NA,NA,NA,NA,NA,NA,NA,NA,NA,NA,NA,NA,NA,sub-74920117
test,yellow,g,1,NA,NA,NA,NA,NA,NA,NA,NA,NA,NA,NA,NA,NA,NA,NA,NA,sub-74920117
NA,NA,NA,NA,NA,NA,NA,NA,NA,NA,NA,NA,NA,NA,NA,NA,NA,NA,NA,NA,sub-74920117
NA,NA,NA,NA,blau,red,0,NA,NA,NA,NA,0,0,0,NA,NA,NA,NA,NA,NA,sub-74920117
NA,NA,NA,NA,gelb,red,0,NA,NA,NA,NA,0,1,1,NA,NA,NA,NA,NA,NA,sub-74920117
NA,NA,NA,NA,gelb,yellow,1,NA,NA,NA,NA,0,2,2,NA,NA,NA,NA,NA,NA,sub-74920117
NA,NA,NA,NA,gelb,blue,0,NA,NA,NA,NA,0,3,3,NA,NA,NA,NA,NA,NA,sub-74920117
NA,NA,NA,NA,gelb,yellow,1,NA,NA,NA,NA,0,4,4,NA,NA,NA,NA,NA,NA,sub-74920117
NA,NA,NA,NA,blau,blue,1,NA,NA,NA,NA,0,5,5,NA,NA,NA,NA,NA,NA,sub-74920117
NA,NA,NA,NA,blau,yellow,0,NA,NA,NA,NA,0,6,6,NA,NA,NA,NA,NA,NA,sub-74920117
NA,NA,NA,NA,rot,blue,0,NA,NA,NA,NA,0,7,7,NA,NA,NA,NA,NA,NA,sub-74920117
NA,NA,NA,NA,rot,yellow,0,NA,NA,NA,NA,0,8,8,NA,NA,NA,NA,NA,NA,sub-74920117
NA,NA,NA,NA,rot,red,1,NA,NA,NA,NA,0,9,9,NA,NA,NA,NA,NA,NA,sub-74920117
NA,NA,NA,NA,rot,red,1,NA,NA,NA,NA,0,10,10,NA,NA,NA,NA,NA,NA,sub-74920117
NA,NA,NA,NA,blau,blue,1,NA,NA,NA,NA,0,11,11,NA,NA,NA,NA,NA,NA,sub-74920117
NA,NA,NA,NA,rot,red,1,NA,NA,NA,NA,1,0,12,NA,NA,NA,NA,NA,NA,sub-74920117
NA,NA,NA,NA,rot,blue,0,NA,NA,NA,NA,1,1,13,NA,NA,NA,NA,NA,NA,sub-74920117
NA,NA,NA,NA,rot,red,1,NA,NA,NA,NA,1,2,14,NA,NA,NA,NA,NA,NA,sub-74920117
NA,NA,NA,NA,blau,blue,1,NA,NA,NA,NA,1,3,15,NA,NA,NA,NA,NA,NA,sub-74920117
NA,NA,NA,NA,gelb,red,0,NA,NA,NA,NA,1,4,16,NA,NA,NA,NA,NA,NA,sub-74920117
NA,NA,NA,NA,rot,yellow,0,NA,NA,NA,NA,1,5,17,NA,NA,NA,NA,NA,NA,sub-74920117
NA,NA,NA,NA,gelb,yellow,1,NA,NA,NA,NA,1,6,18,NA,NA,NA,NA,NA,NA,sub-74920117
NA,NA,NA,NA,blau,red,0,NA,NA,NA,NA,1,7,19,NA,NA,NA,NA,NA,NA,sub-74920117
NA,NA,NA,NA,gelb,blue,0,NA,NA,NA,NA,1,8,20,NA,NA,NA,NA,NA,NA,sub-74920117
NA,NA,NA,NA,blau,blue,1,NA,NA,NA,NA,1,9,21,NA,NA,NA,NA,NA,NA,sub-74920117
NA,NA,NA,NA,gelb,yellow,1,NA,NA,NA,NA,1,10,22,NA,NA,NA,NA,NA,NA,sub-74920117
NA,NA,NA,NA,blau,yellow,0,NA,NA,NA,NA,1,11,23,NA,NA,NA,NA,NA,NA,sub-74920117
NA,NA,NA,NA,NA,NA,NA,NA,NA,NA,NA,NA,NA,NA,NA,NA,NA,NA,NA,NA,sub-74920117
NA,NA,NA,NA,NA,NA,NA,rot,blue,b,0,NA,NA,NA,0,0,0,b,1,3.0365583,sub-74920117
NA,NA,NA,NA,NA,NA,NA,blau,blue,b,1,NA,NA,NA,0,1,1,b,1,2.3531702,sub-74920117
NA,NA,NA,NA,NA,NA,NA,rot,red,r,1,NA,NA,NA,0,2,2,r,1,4.2907841,sub-74920117
NA,NA,NA,NA,NA,NA,NA,gelb,blue,b,0,NA,NA,NA,0,3,3,b,1,3.3810368,sub-74920117
NA,NA,NA,NA,NA,NA,NA,blau,red,r,0,NA,NA,NA,0,4,4,r,1,2.8541672,sub-74920117
NA,NA,NA,NA,NA,NA,NA,gelb,yellow,g,1,NA,NA,NA,0,5,5,g,1,2.4023428,sub-74920117
NA,NA,NA,NA,NA,NA,NA,gelb,red,r,0,NA,NA,NA,0,6,6,r,1,3.2845452,sub-74920117
NA,NA,NA,NA,NA,NA,NA,blau,yellow,g,0,NA,NA,NA,0,7,7,g,1,2.1679133,sub-74920117
NA,NA,NA,NA,NA,NA,NA,blau,blue,b,1,NA,NA,NA,0,8,8,b,1,1.8487925,sub-74920117
NA,NA,NA,NA,NA,NA,NA,rot,yellow,g,0,NA,NA,NA,0,9,9,g,1,1.8212927,sub-74920117
NA,NA,NA,NA,NA,NA,NA,gelb,yellow,g,1,NA,NA,NA,0,10,10,g,1,2.4674887,sub-74920117
NA,NA,NA,NA,NA,NA,NA,rot,red,r,1,NA,NA,NA,0,11,11,r,1,2.5607863,sub-74920117
NA,NA,NA,NA,NA,NA,NA,rot,red,r,1,NA,NA,NA,1,0,12,r,1,3.027586,sub-74920117
NA,NA,NA,NA,NA,NA,NA,blau,blue,b,1,NA,NA,NA,1,1,13,b,1,2.3410649,sub-74920117
NA,NA,NA,NA,NA,NA,NA,blau,red,r,0,NA,NA,NA,1,2,14,r,1,2.2653153,sub-74920117
NA,NA,NA,NA,NA,NA,NA,gelb,red,r,0,NA,NA,NA,1,3,15,r,1,1.6118102,sub-74920117
NA,NA,NA,NA,NA,NA,NA,rot,blue,b,0,NA,NA,NA,1,4,16,r,0,2.8407767,sub-74920117
NA,NA,NA,NA,NA,NA,NA,blau,blue,b,1,NA,NA,NA,1,5,17,b,1,3.1174844,sub-74920117
NA,NA,NA,NA,NA,NA,NA,gelb,blue,b,0,NA,NA,NA,1,6,18,b,1,1.6278437,sub-74920117
NA,NA,NA,NA,NA,NA,NA,gelb,yellow,g,1,NA,NA,NA,1,7,19,g,1,3.5503682,sub-74920117
NA,NA,NA,NA,NA,NA,NA,rot,yellow,g,0,NA,NA,NA,1,8,20,g,1,1.3512947,sub-74920117
NA,NA,NA,NA,NA,NA,NA,gelb,yellow,g,1,NA,NA,NA,1,9,21,g,1,1.6627251,sub-74920117
NA,NA,NA,NA,NA,NA,NA,rot,red,r,1,NA,NA,NA,1,10,22,r,1,2.3641899,sub-74920117
NA,NA,NA,NA,NA,NA,NA,blau,yellow,g,0,NA,NA,NA,1,11,23,g,1,2.4238482,sub-74920117
NA,NA,NA,NA,NA,NA,NA,blau,blue,b,1,NA,NA,NA,2,0,24,b,1,1.4948688,sub-74920117
NA,NA,NA,NA,NA,NA,NA,rot,red,r,1,NA,NA,NA,2,1,25,r,1,2.1617041,sub-74920117
NA,NA,NA,NA,NA,NA,NA,blau,yellow,g,0,NA,NA,NA,2,2,26,g,1,1.8670612,sub-74920117
NA,NA,NA,NA,NA,NA,NA,rot,blue,b,0,NA,NA,NA,2,3,27,b,1,1.9004055,sub-74920117
NA,NA,NA,NA,NA,NA,NA,gelb,red,r,0,NA,NA,NA,2,4,28,r,1,1.5578306,sub-74920117
NA,NA,NA,NA,NA,NA,NA,gelb,yellow,g,1,NA,NA,NA,2,5,29,g,1,1.3264048,sub-74920117
NA,NA,NA,NA,NA,NA,NA,rot,red,r,1,NA,NA,NA,2,6,30,r,1,2.9400737,sub-74920117
NA,NA,NA,NA,NA,NA,NA,gelb,yellow,g,1,NA,NA,NA,2,7,31,g,1,2.6327242,sub-74920117
NA,NA,NA,NA,NA,NA,NA,blau,blue,b,1,NA,NA,NA,2,8,32,b,1,1.0807201,sub-74920117
NA,NA,NA,NA,NA,NA,NA,rot,yellow,g,0,NA,NA,NA,2,9,33,g,1,1.4332648,sub-74920117
NA,NA,NA,NA,NA,NA,NA,gelb,blue,b,0,NA,NA,NA,2,10,34,b,1,1.4545909,sub-74920117
NA,NA,NA,NA,NA,NA,NA,blau,red,r,0,NA,NA,NA,2,11,35,r,1,2.0135264,sub-74920117
NA,NA,NA,NA,NA,NA,NA,gelb,yellow,g,1,NA,NA,NA,3,0,36,g,1,1.231686,sub-74920117
NA,NA,NA,NA,NA,NA,NA,rot,red,r,1,NA,NA,NA,3,1,37,r,1,1.8940624,sub-74920117
NA,NA,NA,NA,NA,NA,NA,gelb,blue,b,0,NA,NA,NA,3,2,38,b,1,1.4307981,sub-74920117
NA,NA,NA,NA,NA,NA,NA,gelb,yellow,g,1,NA,NA,NA,3,3,39,g,1,2.1057646,sub-74920117
NA,NA,NA,NA,NA,NA,NA,rot,yellow,g,0,NA,NA,NA,3,4,40,g,1,1.3821413,sub-74920117
NA,NA,NA,NA,NA,NA,NA,rot,red,r,1,NA,NA,NA,3,5,41,r,1,1.1846972,sub-74920117
NA,NA,NA,NA,NA,NA,NA,blau,blue,b,1,NA,NA,NA,3,6,42,b,1,1.2717909,sub-74920117
NA,NA,NA,NA,NA,NA,NA,blau,yellow,g,0,NA,NA,NA,3,7,43,g,1,1.4843487,sub-74920117
NA,NA,NA,NA,NA,NA,NA,rot,blue,b,0,NA,NA,NA,3,8,44,b,1,1.9318388,sub-74920117
NA,NA,NA,NA,NA,NA,NA,gelb,red,r,0,NA,NA,NA,3,9,45,r,1,1.7581924,sub-74920117
NA,NA,NA,NA,NA,NA,NA,blau,red,r,0,NA,NA,NA,3,10,46,r,1,2.065704,sub-74920117
NA,NA,NA,NA,NA,NA,NA,blau,blue,b,1,NA,NA,NA,3,11,47,b,1,1.1240153,sub-74920117
NA,NA,NA,NA,NA,NA,NA,blau,blue,b,1,NA,NA,NA,4,0,48,b,1,1.422432,sub-74920117
NA,NA,NA,NA,NA,NA,NA,gelb,blue,b,0,NA,NA,NA,4,1,49,b,1,1.088198,sub-74920117
NA,NA,NA,NA,NA,NA,NA,gelb,yellow,g,1,NA,NA,NA,4,2,50,g,1,1.1664212,sub-74920117
NA,NA,NA,NA,NA,NA,NA,blau,yellow,g,0,NA,NA,NA,4,3,51,g,1,1.5412471,sub-74920117
NA,NA,NA,NA,NA,NA,NA,rot,red,r,1,NA,NA,NA,4,4,52,r,1,1.5387721,sub-74920117
NA,NA,NA,NA,NA,NA,NA,rot,red,r,1,NA,NA,NA,4,5,53,r,1,0.8190584,sub-74920117
NA,NA,NA,NA,NA,NA,NA,blau,red,r,0,NA,NA,NA,4,6,54,r,1,1.6916849,sub-74920117
NA,NA,NA,NA,NA,NA,NA,rot,yellow,g,0,NA,NA,NA,4,7,55,g,1,1.4623782,sub-74920117
NA,NA,NA,NA,NA,NA,NA,blau,blue,b,1,NA,NA,NA,4,8,56,b,1,0.9994384,sub-74920117
NA,NA,NA,NA,NA,NA,NA,rot,blue,b,0,NA,NA,NA,4,9,57,b,1,1.37833,sub-74920117
NA,NA,NA,NA,NA,NA,NA,gelb,red,r,0,NA,NA,NA,4,10,58,r,1,1.4729703,sub-74920117
NA,NA,NA,NA,NA,NA,NA,gelb,yellow,g,1,NA,NA,NA,4,11,59,g,1,1.2411389,sub-74920117
NA,NA,NA,NA,NA,NA,NA,blau,blue,b,1,NA,NA,NA,5,0,60,b,1,1.1143706,sub-74920117
NA,NA,NA,NA,NA,NA,NA,blau,yellow,g,0,NA,NA,NA,5,1,61,g,1,1.4781458,sub-74920117
NA,NA,NA,NA,NA,NA,NA,blau,red,r,0,NA,NA,NA,5,2,62,r,1,2.6547383,sub-74920117
NA,NA,NA,NA,NA,NA,NA,rot,yellow,g,0,NA,NA,NA,5,3,63,g,1,1.6847909,sub-74920117
NA,NA,NA,NA,NA,NA,NA,gelb,blue,b,0,NA,NA,NA,5,4,64,b,1,1.4558461,sub-74920117
NA,NA,NA,NA,NA,NA,NA,blau,blue,b,1,NA,NA,NA,5,5,65,b,1,0.9129897,sub-74920117
NA,NA,NA,NA,NA,NA,NA,rot,red,r,1,NA,NA,NA,5,6,66,r,1,1.2313243,sub-74920117
NA,NA,NA,NA,NA,NA,NA,rot,red,r,1,NA,NA,NA,5,7,67,r,1,1.0521661,sub-74920117
NA,NA,NA,NA,NA,NA,NA,rot,blue,b,0,NA,NA,NA,5,8,68,b,1,1.531347,sub-74920117
NA,NA,NA,NA,NA,NA,NA,gelb,red,r,0,NA,NA,NA,5,9,69,r,1,1.4768182,sub-74920117
NA,NA,NA,NA,NA,NA,NA,gelb,yellow,g,1,NA,NA,NA,5,10,70,g,1,1.2860243,sub-74920117
NA,NA,NA,NA,NA,NA,NA,gelb,yellow,g,1,NA,NA,NA,5,11,71,g,1,1.7543233,sub-74920117
NA,NA,NA,NA,NA,NA,NA,gelb,yellow,g,1,NA,NA,NA,6,0,72,g,1,2.0129332,sub-74920117
NA,NA,NA,NA,NA,NA,NA,rot,yellow,g,0,NA,NA,NA,6,1,73,g,1,1.5934086,sub-74920117
NA,NA,NA,NA,NA,NA,NA,blau,red,r,0,NA,NA,NA,6,2,74,r,1,1.3843161,sub-74920117
NA,NA,NA,NA,NA,NA,NA,blau,yellow,g,0,NA,NA,NA,6,3,75,g,1,1.26568,sub-74920117
NA,NA,NA,NA,NA,NA,NA,gelb,yellow,g,1,NA,NA,NA,6,4,76,g,1,0.8082983,sub-74920117
NA,NA,NA,NA,NA,NA,NA,gelb,red,r,0,NA,NA,NA,6,5,77,r,1,1.2168899,sub-74920117
NA,NA,NA,NA,NA,NA,NA,blau,blue,b,1,NA,NA,NA,6,6,78,b,1,4.4678162,sub-74920117
NA,NA,NA,NA,NA,NA,NA,blau,blue,b,1,NA,NA,NA,6,7,79,b,1,0.7914015,sub-74920117
NA,NA,NA,NA,NA,NA,NA,rot,red,r,1,NA,NA,NA,6,8,80,r,1,0.881019,sub-74920117
NA,NA,NA,NA,NA,NA,NA,gelb,blue,b,0,NA,NA,NA,6,9,81,b,1,1.570381,sub-74920117
NA,NA,NA,NA,NA,NA,NA,rot,red,r,1,NA,NA,NA,6,10,82,r,1,0.9647266,sub-74920117
NA,NA,NA,NA,NA,NA,NA,rot,blue,b,0,NA,NA,NA,6,11,83,b,1,2.0052723,sub-74920117
NA,NA,NA,NA,NA,NA,NA,rot,blue,b,0,NA,NA,NA,7,0,84,b,1,1.1903575,sub-74920117
NA,NA,NA,NA,NA,NA,NA,blau,blue,b,1,NA,NA,NA,7,1,85,b,1,2.1825865,sub-74920117
NA,NA,NA,NA,NA,NA,NA,rot,red,r,1,NA,NA,NA,7,2,86,r,1,1.4363669,sub-74920117
NA,NA,NA,NA,NA,NA,NA,gelb,yellow,g,1,NA,NA,NA,7,3,87,g,1,0.9071013,sub-74920117
NA,NA,NA,NA,NA,NA,NA,gelb,red,r,0,NA,NA,NA,7,4,88,r,1,1.9452968,sub-74920117
NA,NA,NA,NA,NA,NA,NA,gelb,yellow,g,1,NA,NA,NA,7,5,89,g,1,1.4429792,sub-74920117
NA,NA,NA,NA,NA,NA,NA,blau,red,r,0,NA,NA,NA,7,6,90,r,1,1.6443667,sub-74920117
NA,NA,NA,NA,NA,NA,NA,rot,yellow,g,0,NA,NA,NA,7,7,91,g,1,1.3573283,sub-74920117
NA,NA,NA,NA,NA,NA,NA,gelb,blue,b,0,NA,NA,NA,7,8,92,b,1,1.4464359,sub-74920117
NA,NA,NA,NA,NA,NA,NA,blau,yellow,g,0,NA,NA,NA,7,9,93,g,1,2.803953,sub-74920117
NA,NA,NA,NA,NA,NA,NA,rot,red,r,1,NA,NA,NA,7,10,94,r,1,1.0648156,sub-74920117
NA,NA,NA,NA,NA,NA,NA,blau,blue,b,1,NA,NA,NA,7,11,95,b,1,1.1932486,sub-74920117
NA,NA,NA,NA,NA,NA,NA,rot,red,r,1,NA,NA,NA,8,0,96,r,1,0.9778968,sub-74920117
NA,NA,NA,NA,NA,NA,NA,rot,red,r,1,NA,NA,NA,8,1,97,r,1,0.9189291,sub-74920117
NA,NA,NA,NA,NA,NA,NA,blau,yellow,g,0,NA,NA,NA,8,2,98,g,1,1.5733475,sub-74920117
NA,NA,NA,NA,NA,NA,NA,blau,blue,b,1,NA,NA,NA,8,3,99,b,1,1.2763859,sub-74920117
NA,NA,NA,NA,NA,NA,NA,gelb,red,r,0,NA,NA,NA,8,4,100,r,1,1.2134729,sub-74920117
NA,NA,NA,NA,NA,NA,NA,rot,yellow,g,0,NA,NA,NA,8,5,101,g,1,1.4217407,sub-74920117
NA,NA,NA,NA,NA,NA,NA,gelb,yellow,g,1,NA,NA,NA,8,6,102,g,1,1.0186286,sub-74920117
NA,NA,NA,NA,NA,NA,NA,gelb,blue,b,0,NA,NA,NA,8,7,103,b,1,2.0003811,sub-74920117
NA,NA,NA,NA,NA,NA,NA,gelb,yellow,g,1,NA,NA,NA,8,8,104,g,1,1.6646927,sub-74920117
NA,NA,NA,NA,NA,NA,NA,rot,blue,b,0,NA,NA,NA,8,9,105,b,1,1.2728514,sub-74920117
NA,NA,NA,NA,NA,NA,NA,blau,blue,b,1,NA,NA,NA,8,10,106,b,1,0.837011,sub-74920117
NA,NA,NA,NA,NA,NA,NA,blau,red,r,0,NA,NA,NA,8,11,107,r,1,1.3916348,sub-74920117
NA,NA,NA,NA,NA,NA,NA,gelb,blue,b,0,NA,NA,NA,9,0,108,b,1,1.522013,sub-74920117
NA,NA,NA,NA,NA,NA,NA,blau,red,r,0,NA,NA,NA,9,1,109,r,1,1.3371942000000001,sub-74920117
NA,NA,NA,NA,NA,NA,NA,gelb,yellow,g,1,NA,NA,NA,9,2,110,g,1,0.9967769,sub-74920117
NA,NA,NA,NA,NA,NA,NA,rot,red,r,1,NA,NA,NA,9,3,111,r,1,1.4382053,sub-74920117
NA,NA,NA,NA,NA,NA,NA,rot,blue,b,0,NA,NA,NA,9,4,112,b,1,1.673836,sub-74920117
NA,NA,NA,NA,NA,NA,NA,blau,blue,b,1,NA,NA,NA,9,5,113,b,1,0.8564048,sub-74920117
NA,NA,NA,NA,NA,NA,NA,blau,yellow,g,0,NA,NA,NA,9,6,114,g,1,1.6735055,sub-74920117
NA,NA,NA,NA,NA,NA,NA,rot,yellow,g,0,NA,NA,NA,9,7,115,g,1,1.5945142,sub-74920117
NA,NA,NA,NA,NA,NA,NA,gelb,yellow,g,1,NA,NA,NA,9,8,116,g,1,0.8414817,sub-74920117
NA,NA,NA,NA,NA,NA,NA,rot,red,r,1,NA,NA,NA,9,9,117,r,1,0.903161,sub-74920117
NA,NA,NA,NA,NA,NA,NA,blau,blue,b,1,NA,NA,NA,9,10,118,b,1,1.210867,sub-74920117
NA,NA,NA,NA,NA,NA,NA,gelb,red,r,0,NA,NA,NA,9,11,119,r,1,1.2271041,sub-74920117
NA,NA,NA,NA,NA,NA,NA,NA,NA,NA,NA,NA,NA,NA,NA,NA,NA,NA,NA,NA,sub-74920117
