wordCTK,colorCTK,corrAnsCTK,congruentCTK,wordPractice,colorPractice,congruentPractice,word,color,corrAns,congruent,trials_practice.thisRepN,trials_practice.thisTrialN,trials_practice.thisN,trials_test.thisRepN,trials_test.thisTrialN,trials_test.thisN,keyResp_test_run.keys,keyResp_test_run.corr,keyResp_test_run.rt,participant
NA,NA,NA,NA,NA,NA,NA,NA,NA,NA,NA,NA,NA,NA,NA,NA,NA,NA,NA,NA,sub-86771724
NA,NA,NA,NA,NA,NA,NA,NA,NA,NA,NA,NA,NA,NA,NA,NA,NA,NA,NA,NA,sub-86771724
test,blue,b,1,NA,NA,NA,NA,NA,NA,NA,NA,NA,NA,NA,NA,NA,NA,NA,NA,sub-86771724
test,red,r,1,NA,NA,NA,NA,NA,NA,NA,NA,NA,NA,NA,NA,NA,NA,NA,NA,sub-86771724
test,yellow,g,1,NA,NA,NA,NA,NA,NA,NA,NA,NA,NA,NA,NA,NA,NA,NA,NA,sub-86771724
test,blue,b,1,NA,NA,NA,NA,NA,NA,NA,NA,NA,NA,NA,NA,NA,NA,NA,NA,sub-86771724
test,yellow,g,1,NA,NA,NA,NA,NA,NA,NA,NA,NA,NA,NA,NA,NA,NA,NA,NA,sub-86771724
test,red,r,1,NA,NA,NA,NA,NA,NA,NA,NA,NA,NA,NA,NA,NA,NA,NA,NA,sub-86771724
test,blue,b,1,NA,NA,NA,NA,NA,NA,NA,NA,NA,NA,NA,NA,NA,NA,NA,NA,sub-86771724
test,red,r,1,NA,NA,NA,NA,NA,NA,NA,NA,NA,NA,NA,NA,NA,NA,NA,NA,sub-86771724
test,yellow,g,1,NA,NA,NA,NA,NA,NA,NA,NA,NA,NA,NA,NA,NA,NA,NA,NA,sub-86771724
test,yellow,g,1,NA,NA,NA,NA,NA,NA,NA,NA,NA,NA,NA,NA,NA,NA,NA,NA,sub-86771724
test,blue,b,1,NA,NA,NA,NA,NA,NA,NA,NA,NA,NA,NA,NA,NA,NA,NA,NA,sub-86771724
test,red,r,1,NA,NA,NA,NA,NA,NA,NA,NA,NA,NA,NA,NA,NA,NA,NA,NA,sub-86771724
NA,NA,NA,NA,NA,NA,NA,NA,NA,NA,NA,NA,NA,NA,NA,NA,NA,NA,NA,NA,sub-86771724
NA,NA,NA,NA,gelb,yellow,1,NA,NA,NA,NA,0,0,0,NA,NA,NA,NA,NA,NA,sub-86771724
NA,NA,NA,NA,rot,yellow,0,NA,NA,NA,NA,0,1,1,NA,NA,NA,NA,NA,NA,sub-86771724
NA,NA,NA,NA,blau,blue,1,NA,NA,NA,NA,0,2,2,NA,NA,NA,NA,NA,NA,sub-86771724
NA,NA,NA,NA,gelb,yellow,1,NA,NA,NA,NA,0,3,3,NA,NA,NA,NA,NA,NA,sub-86771724
NA,NA,NA,NA,blau,blue,1,NA,NA,NA,NA,0,4,4,NA,NA,NA,NA,NA,NA,sub-86771724
NA,NA,NA,NA,rot,red,1,NA,NA,NA,NA,0,5,5,NA,NA,NA,NA,NA,NA,sub-86771724
NA,NA,NA,NA,blau,yellow,0,NA,NA,NA,NA,0,6,6,NA,NA,NA,NA,NA,NA,sub-86771724
NA,NA,NA,NA,gelb,blue,0,NA,NA,NA,NA,0,7,7,NA,NA,NA,NA,NA,NA,sub-86771724
NA,NA,NA,NA,gelb,red,0,NA,NA,NA,NA,0,8,8,NA,NA,NA,NA,NA,NA,sub-86771724
NA,NA,NA,NA,rot,blue,0,NA,NA,NA,NA,0,9,9,NA,NA,NA,NA,NA,NA,sub-86771724
NA,NA,NA,NA,blau,red,0,NA,NA,NA,NA,0,10,10,NA,NA,NA,NA,NA,NA,sub-86771724
NA,NA,NA,NA,rot,red,1,NA,NA,NA,NA,0,11,11,NA,NA,NA,NA,NA,NA,sub-86771724
NA,NA,NA,NA,rot,blue,0,NA,NA,NA,NA,1,0,12,NA,NA,NA,NA,NA,NA,sub-86771724
NA,NA,NA,NA,rot,red,1,NA,NA,NA,NA,1,1,13,NA,NA,NA,NA,NA,NA,sub-86771724
NA,NA,NA,NA,rot,red,1,NA,NA,NA,NA,1,2,14,NA,NA,NA,NA,NA,NA,sub-86771724
NA,NA,NA,NA,gelb,red,0,NA,NA,NA,NA,1,3,15,NA,NA,NA,NA,NA,NA,sub-86771724
NA,NA,NA,NA,blau,blue,1,NA,NA,NA,NA,1,4,16,NA,NA,NA,NA,NA,NA,sub-86771724
NA,NA,NA,NA,blau,red,0,NA,NA,NA,NA,1,5,17,NA,NA,NA,NA,NA,NA,sub-86771724
NA,NA,NA,NA,gelb,blue,0,NA,NA,NA,NA,1,6,18,NA,NA,NA,NA,NA,NA,sub-86771724
NA,NA,NA,NA,gelb,yellow,1,NA,NA,NA,NA,1,7,19,NA,NA,NA,NA,NA,NA,sub-86771724
NA,NA,NA,NA,rot,yellow,0,NA,NA,NA,NA,1,8,20,NA,NA,NA,NA,NA,NA,sub-86771724
NA,NA,NA,NA,gelb,yellow,1,NA,NA,NA,NA,1,9,21,NA,NA,NA,NA,NA,NA,sub-86771724
NA,NA,NA,NA,blau,blue,1,NA,NA,NA,NA,1,10,22,NA,NA,NA,NA,NA,NA,sub-86771724
NA,NA,NA,NA,blau,yellow,0,NA,NA,NA,NA,1,11,23,NA,NA,NA,NA,NA,NA,sub-86771724
NA,NA,NA,NA,NA,NA,NA,NA,NA,NA,NA,NA,NA,NA,NA,NA,NA,NA,NA,NA,sub-86771724
NA,NA,NA,NA,NA,NA,NA,gelb,red,r,0,NA,NA,NA,0,0,0,r,1,0.815748719,sub-86771724
NA,NA,NA,NA,NA,NA,NA,rot,red,r,1,NA,NA,NA,0,1,1,r,1,0.468946502,sub-86771724
NA,NA,NA,NA,NA,NA,NA,gelb,yellow,g,1,NA,NA,NA,0,2,2,g,1,0.541955845,sub-86771724
NA,NA,NA,NA,NA,NA,NA,blau,blue,b,1,NA,NA,NA,0,3,3,b,1,0.510711474,sub-86771724
NA,NA,NA,NA,NA,NA,NA,blau,blue,b,1,NA,NA,NA,0,4,4,b,1,0.363856039,sub-86771724
NA,NA,NA,NA,NA,NA,NA,rot,red,r,1,NA,NA,NA,0,5,5,r,1,0.312802761,sub-86771724
NA,NA,NA,NA,NA,NA,NA,blau,yellow,g,0,NA,NA,NA,0,6,6,g,1,0.294445147,sub-86771724
NA,NA,NA,NA,NA,NA,NA,gelb,blue,b,0,NA,NA,NA,0,7,7,b,1,0.788106489,sub-86771724
NA,NA,NA,NA,NA,NA,NA,rot,blue,b,0,NA,NA,NA,0,8,8,b,1,0.509500543,sub-86771724
NA,NA,NA,NA,NA,NA,NA,gelb,yellow,g,1,NA,NA,NA,0,9,9,r,0,0.419655791,sub-86771724
NA,NA,NA,NA,NA,NA,NA,rot,yellow,g,0,NA,NA,NA,0,10,10,r,0,0.510179365,sub-86771724
NA,NA,NA,NA,NA,NA,NA,blau,red,r,0,NA,NA,NA,0,11,11,r,1,0.797581115,sub-86771724
NA,NA,NA,NA,NA,NA,NA,rot,red,r,1,NA,NA,NA,1,0,12,r,1,0.336436198,sub-86771724
NA,NA,NA,NA,NA,NA,NA,rot,blue,b,0,NA,NA,NA,1,1,13,b,1,0.559439283,sub-86771724
NA,NA,NA,NA,NA,NA,NA,blau,yellow,g,0,NA,NA,NA,1,2,14,r,0,0.633867966,sub-86771724
NA,NA,NA,NA,NA,NA,NA,gelb,blue,b,0,NA,NA,NA,1,3,15,b,1,0.635243612,sub-86771724
NA,NA,NA,NA,NA,NA,NA,rot,yellow,g,0,NA,NA,NA,1,4,16,g,1,0.351789399,sub-86771724
NA,NA,NA,NA,NA,NA,NA,gelb,yellow,g,1,NA,NA,NA,1,5,17,g,1,0.53231474,sub-86771724
NA,NA,NA,NA,NA,NA,NA,blau,blue,b,1,NA,NA,NA,1,6,18,b,1,8.613916367,sub-86771724
NA,NA,NA,NA,NA,NA,NA,rot,red,r,1,NA,NA,NA,1,7,19,r,1,1.158061514,sub-86771724
NA,NA,NA,NA,NA,NA,NA,gelb,red,r,0,NA,NA,NA,1,8,20,r,1,1.246779919,sub-86771724
NA,NA,NA,NA,NA,NA,NA,blau,red,r,0,NA,NA,NA,1,9,21,r,1,0.634441712,sub-86771724
NA,NA,NA,NA,NA,NA,NA,blau,blue,b,1,NA,NA,NA,1,10,22,b,1,1.311659018,sub-86771724
NA,NA,NA,NA,NA,NA,NA,gelb,yellow,g,1,NA,NA,NA,1,11,23,g,1,0.774366603,sub-86771724
NA,NA,NA,NA,NA,NA,NA,rot,yellow,g,0,NA,NA,NA,2,0,24,g,1,0.892303981,sub-86771724
NA,NA,NA,NA,NA,NA,NA,blau,blue,b,1,NA,NA,NA,2,1,25,b,1,0.678883292,sub-86771724
NA,NA,NA,NA,NA,NA,NA,blau,yellow,g,0,NA,NA,NA,2,2,26,g,1,0.654025813,sub-86771724
NA,NA,NA,NA,NA,NA,NA,gelb,red,r,0,NA,NA,NA,2,3,27,r,1,1.078944555,sub-86771724
NA,NA,NA,NA,NA,NA,NA,rot,red,r,1,NA,NA,NA,2,4,28,r,1,0.595619069,sub-86771724
NA,NA,NA,NA,NA,NA,NA,gelb,yellow,g,1,NA,NA,NA,2,5,29,g,1,0.493320616,sub-86771724
NA,NA,NA,NA,NA,NA,NA,gelb,yellow,g,1,NA,NA,NA,2,6,30,g,1,0.448657349,sub-86771724
NA,NA,NA,NA,NA,NA,NA,gelb,blue,b,0,NA,NA,NA,2,7,31,b,1,0.618040689,sub-86771724
NA,NA,NA,NA,NA,NA,NA,blau,blue,b,1,NA,NA,NA,2,8,32,b,1,0.623262857,sub-86771724
NA,NA,NA,NA,NA,NA,NA,rot,blue,b,0,NA,NA,NA,2,9,33,b,1,0.879053383,sub-86771724
NA,NA,NA,NA,NA,NA,NA,blau,red,r,0,NA,NA,NA,2,10,34,r,1,0.830152101,sub-86771724
NA,NA,NA,NA,NA,NA,NA,rot,red,r,1,NA,NA,NA,2,11,35,r,1,0.42839551,sub-86771724
NA,NA,NA,NA,NA,NA,NA,rot,red,r,1,NA,NA,NA,3,0,36,r,1,0.458861255,sub-86771724
NA,NA,NA,NA,NA,NA,NA,blau,blue,b,1,NA,NA,NA,3,1,37,b,1,0.720478142,sub-86771724
NA,NA,NA,NA,NA,NA,NA,blau,yellow,g,0,NA,NA,NA,3,2,38,g,1,0.643303709,sub-86771724
NA,NA,NA,NA,NA,NA,NA,blau,blue,b,1,NA,NA,NA,3,3,39,b,1,0.535049566,sub-86771724
NA,NA,NA,NA,NA,NA,NA,rot,red,r,1,NA,NA,NA,3,4,40,r,1,0.68954722,sub-86771724
NA,NA,NA,NA,NA,NA,NA,gelb,blue,b,0,NA,NA,NA,3,5,41,b,1,0.909981678,sub-86771724
NA,NA,NA,NA,NA,NA,NA,gelb,red,r,0,NA,NA,NA,3,6,42,r,1,0.728894175,sub-86771724
NA,NA,NA,NA,NA,NA,NA,blau,red,r,0,NA,NA,NA,3,7,43,r,1,0.680846356,sub-86771724
NA,NA,NA,NA,NA,NA,NA,gelb,yellow,g,1,NA,NA,NA,3,8,44,g,1,0.503075799,sub-86771724
NA,NA,NA,NA,NA,NA,NA,rot,blue,b,0,NA,NA,NA,3,9,45,b,1,0.96190207,sub-86771724
NA,NA,NA,NA,NA,NA,NA,rot,yellow,g,0,NA,NA,NA,3,10,46,r,0,0.632141997,sub-86771724
NA,NA,NA,NA,NA,NA,NA,gelb,yellow,g,1,NA,NA,NA,3,11,47,g,1,0.47422596,sub-86771724
NA,NA,NA,NA,NA,NA,NA,rot,red,r,1,NA,NA,NA,4,0,48,r,1,0.502563502,sub-86771724
NA,NA,NA,NA,NA,NA,NA,blau,blue,b,1,NA,NA,NA,4,1,49,b,1,0.380956125,sub-86771724
NA,NA,NA,NA,NA,NA,NA,blau,yellow,g,0,NA,NA,NA,4,2,50,g,1,0.72363895600000006,sub-86771724
NA,NA,NA,NA,NA,NA,NA,rot,yellow,g,0,NA,NA,NA,4,3,51,r,0,0.337318993,sub-86771724
NA,NA,NA,NA,NA,NA,NA,gelb,red,r,0,NA,NA,NA,4,4,52,r,1,0.555328102,sub-86771724
NA,NA,NA,NA,NA,NA,NA,gelb,yellow,g,1,NA,NA,NA,4,5,53,g,1,0.306890786,sub-86771724
NA,NA,NA,NA,NA,NA,NA,gelb,yellow,g,1,NA,NA,NA,4,6,54,g,1,0.383051681,sub-86771724
NA,NA,NA,NA,NA,NA,NA,gelb,blue,b,0,NA,NA,NA,4,7,55,b,1,0.595930018,sub-86771724
NA,NA,NA,NA,NA,NA,NA,rot,red,r,1,NA,NA,NA,4,8,56,r,1,0.865224455,sub-86771724
NA,NA,NA,NA,NA,NA,NA,blau,red,r,0,NA,NA,NA,4,9,57,r,1,0.95380026,sub-86771724
NA,NA,NA,NA,NA,NA,NA,rot,blue,b,0,NA,NA,NA,4,10,58,b,1,0.8872338,sub-86771724
NA,NA,NA,NA,NA,NA,NA,blau,blue,b,1,NA,NA,NA,4,11,59,b,1,0.59191672,sub-86771724
NA,NA,NA,NA,NA,NA,NA,gelb,blue,b,0,NA,NA,NA,5,0,60,b,1,0.70163382,sub-86771724
NA,NA,NA,NA,NA,NA,NA,blau,yellow,g,0,NA,NA,NA,5,1,61,g,1,0.907400144,sub-86771724
NA,NA,NA,NA,NA,NA,NA,blau,blue,b,1,NA,NA,NA,5,2,62,b,1,0.626390681,sub-86771724
NA,NA,NA,NA,NA,NA,NA,rot,red,r,1,NA,NA,NA,5,3,63,r,1,0.437067888,sub-86771724
NA,NA,NA,NA,NA,NA,NA,blau,red,r,0,NA,NA,NA,5,4,64,b,0,0.710927262,sub-86771724
NA,NA,NA,NA,NA,NA,NA,rot,blue,b,0,NA,NA,NA,5,5,65,b,1,0.547330888,sub-86771724
NA,NA,NA,NA,NA,NA,NA,rot,yellow,g,0,NA,NA,NA,5,6,66,r,0,0.656623892,sub-86771724
NA,NA,NA,NA,NA,NA,NA,blau,blue,b,1,NA,NA,NA,5,7,67,b,1,0.694489823,sub-86771724
NA,NA,NA,NA,NA,NA,NA,gelb,red,r,0,NA,NA,NA,5,8,68,r,1,0.86549023,sub-86771724
NA,NA,NA,NA,NA,NA,NA,rot,red,r,1,NA,NA,NA,5,9,69,r,1,0.481649728,sub-86771724
NA,NA,NA,NA,NA,NA,NA,gelb,yellow,g,1,NA,NA,NA,5,10,70,g,1,0.522133724,sub-86771724
NA,NA,NA,NA,NA,NA,NA,gelb,yellow,g,1,NA,NA,NA,5,11,71,g,1,0.630544544,sub-86771724
NA,NA,NA,NA,NA,NA,NA,gelb,yellow,g,1,NA,NA,NA,6,0,72,g,1,0.370992853,sub-86771724
NA,NA,NA,NA,NA,NA,NA,rot,red,r,1,NA,NA,NA,6,1,73,r,1,0.57207046,sub-86771724
NA,NA,NA,NA,NA,NA,NA,rot,yellow,g,0,NA,NA,NA,6,2,74,g,1,0.644356507,sub-86771724
NA,NA,NA,NA,NA,NA,NA,blau,yellow,g,0,NA,NA,NA,6,3,75,g,1,0.484347,sub-86771724
NA,NA,NA,NA,NA,NA,NA,rot,blue,b,0,NA,NA,NA,6,4,76,b,1,0.666020816,sub-86771724
NA,NA,NA,NA,NA,NA,NA,gelb,yellow,g,1,NA,NA,NA,6,5,77,g,1,0.55644222,sub-86771724
NA,NA,NA,NA,NA,NA,NA,rot,red,r,1,NA,NA,NA,6,6,78,r,1,0.793610703,sub-86771724
NA,NA,NA,NA,NA,NA,NA,blau,blue,b,1,NA,NA,NA,6,7,79,b,1,0.583838499,sub-86771724
NA,NA,NA,NA,NA,NA,NA,gelb,blue,b,0,NA,NA,NA,6,8,80,b,1,0.587432612,sub-86771724
NA,NA,NA,NA,NA,NA,NA,blau,red,r,0,NA,NA,NA,6,9,81,b,0,0.475829447,sub-86771724
NA,NA,NA,NA,NA,NA,NA,gelb,red,r,0,NA,NA,NA,6,10,82,r,1,0.893106628,sub-86771724
NA,NA,NA,NA,NA,NA,NA,blau,blue,b,1,NA,NA,NA,6,11,83,b,1,0.716485007,sub-86771724
NA,NA,NA,NA,NA,NA,NA,rot,red,r,1,NA,NA,NA,7,0,84,r,1,0.819587784,sub-86771724
NA,NA,NA,NA,NA,NA,NA,gelb,blue,b,0,NA,NA,NA,7,1,85,b,1,0.810595493,sub-86771724
NA,NA,NA,NA,NA,NA,NA,gelb,red,r,0,NA,NA,NA,7,2,86,r,1,0.761124551,sub-86771724
NA,NA,NA,NA,NA,NA,NA,blau,blue,b,1,NA,NA,NA,7,3,87,b,1,0.601954406,sub-86771724
NA,NA,NA,NA,NA,NA,NA,rot,blue,b,0,NA,NA,NA,7,4,88,b,1,1.209414356,sub-86771724
NA,NA,NA,NA,NA,NA,NA,blau,blue,b,1,NA,NA,NA,7,5,89,b,1,0.704064279,sub-86771724
NA,NA,NA,NA,NA,NA,NA,blau,red,r,0,NA,NA,NA,7,6,90,r,1,0.829484413,sub-86771724
NA,NA,NA,NA,NA,NA,NA,rot,red,r,1,NA,NA,NA,7,7,91,r,1,0.506779284,sub-86771724
NA,NA,NA,NA,NA,NA,NA,gelb,yellow,g,1,NA,NA,NA,7,8,92,g,1,0.33646066,sub-86771724
NA,NA,NA,NA,NA,NA,NA,blau,yellow,g,0,NA,NA,NA,7,9,93,g,1,0.276527873,sub-86771724
NA,NA,NA,NA,NA,NA,NA,gelb,yellow,g,1,NA,NA,NA,7,10,94,g,1,0.299363718,sub-86771724
NA,NA,NA,NA,NA,NA,NA,rot,yellow,g,0,NA,NA,NA,7,11,95,g,1,0.270798638,sub-86771724
NA,NA,NA,NA,NA,NA,NA,gelb,yellow,g,1,NA,NA,NA,8,0,96,g,1,0.285586679,sub-86771724
NA,NA,NA,NA,NA,NA,NA,rot,yellow,g,0,NA,NA,NA,8,1,97,g,1,0.321413779,sub-86771724
NA,NA,NA,NA,NA,NA,NA,gelb,blue,b,0,NA,NA,NA,8,2,98,b,1,0.682170069,sub-86771724
NA,NA,NA,NA,NA,NA,NA,blau,blue,b,1,NA,NA,NA,8,3,99,b,1,0.318356402,sub-86771724
NA,NA,NA,NA,NA,NA,NA,blau,yellow,g,0,NA,NA,NA,8,4,100,g,1,0.457116918,sub-86771724
NA,NA,NA,NA,NA,NA,NA,rot,red,r,1,NA,NA,NA,8,5,101,r,1,0.476516393,sub-86771724
NA,NA,NA,NA,NA,NA,NA,gelb,red,r,0,NA,NA,NA,8,6,102,r,1,0.402712736,sub-86771724
NA,NA,NA,NA,NA,NA,NA,rot,red,r,1,NA,NA,NA,8,7,103,r,1,0.275107552,sub-86771724
NA,NA,NA,NA,NA,NA,NA,blau,red,r,0,NA,NA,NA,8,8,104,r,1,0.312596826,sub-86771724
NA,NA,NA,NA,NA,NA,NA,blau,blue,b,1,NA,NA,NA,8,9,105,b,1,0.580813057,sub-86771724
NA,NA,NA,NA,NA,NA,NA,rot,blue,b,0,NA,NA,NA,8,10,106,b,1,0.323891649,sub-86771724
NA,NA,NA,NA,NA,NA,NA,gelb,yellow,g,1,NA,NA,NA,8,11,107,g,1,0.617059598,sub-86771724
NA,NA,NA,NA,NA,NA,NA,blau,red,r,0,NA,NA,NA,9,0,108,b,0,0.662738103,sub-86771724
NA,NA,NA,NA,NA,NA,NA,blau,blue,b,1,NA,NA,NA,9,1,109,b,1,0.553851465,sub-86771724
NA,NA,NA,NA,NA,NA,NA,gelb,yellow,g,1,NA,NA,NA,9,2,110,g,1,0.540230595,sub-86771724
NA,NA,NA,NA,NA,NA,NA,blau,yellow,g,0,NA,NA,NA,9,3,111,g,1,0.353812376,sub-86771724
NA,NA,NA,NA,NA,NA,NA,rot,red,r,1,NA,NA,NA,9,4,112,r,1,0.467836875,sub-86771724
NA,NA,NA,NA,NA,NA,NA,rot,yellow,g,0,NA,NA,NA,9,5,113,g,1,0.447550166,sub-86771724
NA,NA,NA,NA,NA,NA,NA,gelb,red,r,0,NA,NA,NA,9,6,114,r,1,0.757201473,sub-86771724
NA,NA,NA,NA,NA,NA,NA,gelb,yellow,g,1,NA,NA,NA,9,7,115,g,1,0.628186393,sub-86771724
NA,NA,NA,NA,NA,NA,NA,gelb,blue,b,0,NA,NA,NA,9,8,116,b,1,0.656339665,sub-86771724
NA,NA,NA,NA,NA,NA,NA,blau,blue,b,1,NA,NA,NA,9,9,117,b,1,0.473668077,sub-86771724
NA,NA,NA,NA,NA,NA,NA,rot,blue,b,0,NA,NA,NA,9,10,118,b,1,0.335948834,sub-86771724
NA,NA,NA,NA,NA,NA,NA,rot,red,r,1,NA,NA,NA,9,11,119,r,1,0.551912298,sub-86771724
NA,NA,NA,NA,NA,NA,NA,NA,NA,NA,NA,NA,NA,NA,NA,NA,NA,NA,NA,NA,sub-86771724
