wordCTK,colorCTK,corrAnsCTK,congruentCTK,wordPractice,colorPractice,congruentPractice,word,color,corrAns,congruent,trials_practice.thisRepN,trials_practice.thisTrialN,trials_practice.thisN,trials_test.thisRepN,trials_test.thisTrialN,trials_test.thisN,keyResp_test_run.keys,keyResp_test_run.corr,keyResp_test_run.rt,participant
NA,NA,NA,NA,NA,NA,NA,NA,NA,NA,NA,NA,NA,NA,NA,NA,NA,NA,NA,NA,sub-36666980
NA,NA,NA,NA,NA,NA,NA,NA,NA,NA,NA,NA,NA,NA,NA,NA,NA,NA,NA,NA,sub-36666980
test,red,r,1,NA,NA,NA,NA,NA,NA,NA,NA,NA,NA,NA,NA,NA,NA,NA,NA,sub-36666980
test,yellow,g,1,NA,NA,NA,NA,NA,NA,NA,NA,NA,NA,NA,NA,NA,NA,NA,NA,sub-36666980
test,blue,b,1,NA,NA,NA,NA,NA,NA,NA,NA,NA,NA,NA,NA,NA,NA,NA,NA,sub-36666980
test,yellow,g,1,NA,NA,NA,NA,NA,NA,NA,NA,NA,NA,NA,NA,NA,NA,NA,NA,sub-36666980
test,red,r,1,NA,NA,NA,NA,NA,NA,NA,NA,NA,NA,NA,NA,NA,NA,NA,NA,sub-36666980
test,blue,b,1,NA,NA,NA,NA,NA,NA,NA,NA,NA,NA,NA,NA,NA,NA,NA,NA,sub-36666980
test,blue,b,1,NA,NA,NA,NA,NA,NA,NA,NA,NA,NA,NA,NA,NA,NA,NA,NA,sub-36666980
test,red,r,1,NA,NA,NA,NA,NA,NA,NA,NA,NA,NA,NA,NA,NA,NA,NA,NA,sub-36666980
test,yellow,g,1,NA,NA,NA,NA,NA,NA,NA,NA,NA,NA,NA,NA,NA,NA,NA,NA,sub-36666980
test,blue,b,1,NA,NA,NA,NA,NA,NA,NA,NA,NA,NA,NA,NA,NA,NA,NA,NA,sub-36666980
test,red,r,1,NA,NA,NA,NA,NA,NA,NA,NA,NA,NA,NA,NA,NA,NA,NA,NA,sub-36666980
test,yellow,g,1,NA,NA,NA,NA,NA,NA,NA,NA,NA,NA,NA,NA,NA,NA,NA,NA,sub-36666980
NA,NA,NA,NA,NA,NA,NA,NA,NA,NA,NA,NA,NA,NA,NA,NA,NA,NA,NA,NA,sub-36666980
NA,NA,NA,NA,rot,red,1,NA,NA,NA,NA,0,0,0,NA,NA,NA,NA,NA,NA,sub-36666980
NA,NA,NA,NA,blau,yellow,0,NA,NA,NA,NA,0,1,1,NA,NA,NA,NA,NA,NA,sub-36666980
NA,NA,NA,NA,gelb,yellow,1,NA,NA,NA,NA,0,2,2,NA,NA,NA,NA,NA,NA,sub-36666980
NA,NA,NA,NA,gelb,blue,0,NA,NA,NA,NA,0,3,3,NA,NA,NA,NA,NA,NA,sub-36666980
NA,NA,NA,NA,blau,blue,1,NA,NA,NA,NA,0,4,4,NA,NA,NA,NA,NA,NA,sub-36666980
NA,NA,NA,NA,blau,blue,1,NA,NA,NA,NA,0,5,5,NA,NA,NA,NA,NA,NA,sub-36666980
NA,NA,NA,NA,rot,blue,0,NA,NA,NA,NA,0,6,6,NA,NA,NA,NA,NA,NA,sub-36666980
NA,NA,NA,NA,gelb,red,0,NA,NA,NA,NA,0,7,7,NA,NA,NA,NA,NA,NA,sub-36666980
NA,NA,NA,NA,rot,yellow,0,NA,NA,NA,NA,0,8,8,NA,NA,NA,NA,NA,NA,sub-36666980
NA,NA,NA,NA,gelb,yellow,1,NA,NA,NA,NA,0,9,9,NA,NA,NA,NA,NA,NA,sub-36666980
NA,NA,NA,NA,rot,red,1,NA,NA,NA,NA,0,10,10,NA,NA,NA,NA,NA,NA,sub-36666980
NA,NA,NA,NA,blau,red,0,NA,NA,NA,NA,0,11,11,NA,NA,NA,NA,NA,NA,sub-36666980
NA,NA,NA,NA,gelb,blue,0,NA,NA,NA,NA,1,0,12,NA,NA,NA,NA,NA,NA,sub-36666980
NA,NA,NA,NA,rot,blue,0,NA,NA,NA,NA,1,1,13,NA,NA,NA,NA,NA,NA,sub-36666980
NA,NA,NA,NA,blau,yellow,0,NA,NA,NA,NA,1,2,14,NA,NA,NA,NA,NA,NA,sub-36666980
NA,NA,NA,NA,rot,yellow,0,NA,NA,NA,NA,1,3,15,NA,NA,NA,NA,NA,NA,sub-36666980
NA,NA,NA,NA,rot,red,1,NA,NA,NA,NA,1,4,16,NA,NA,NA,NA,NA,NA,sub-36666980
NA,NA,NA,NA,gelb,red,0,NA,NA,NA,NA,1,5,17,NA,NA,NA,NA,NA,NA,sub-36666980
NA,NA,NA,NA,rot,red,1,NA,NA,NA,NA,1,6,18,NA,NA,NA,NA,NA,NA,sub-36666980
NA,NA,NA,NA,blau,blue,1,NA,NA,NA,NA,1,7,19,NA,NA,NA,NA,NA,NA,sub-36666980
NA,NA,NA,NA,blau,blue,1,NA,NA,NA,NA,1,8,20,NA,NA,NA,NA,NA,NA,sub-36666980
NA,NA,NA,NA,blau,red,0,NA,NA,NA,NA,1,9,21,NA,NA,NA,NA,NA,NA,sub-36666980
NA,NA,NA,NA,gelb,yellow,1,NA,NA,NA,NA,1,10,22,NA,NA,NA,NA,NA,NA,sub-36666980
NA,NA,NA,NA,gelb,yellow,1,NA,NA,NA,NA,1,11,23,NA,NA,NA,NA,NA,NA,sub-36666980
NA,NA,NA,NA,NA,NA,NA,NA,NA,NA,NA,NA,NA,NA,NA,NA,NA,NA,NA,NA,sub-36666980
NA,NA,NA,NA,NA,NA,NA,gelb,blue,b,0,NA,NA,NA,0,0,0,b,1,0.5756927,sub-36666980
NA,NA,NA,NA,NA,NA,NA,gelb,red,r,0,NA,NA,NA,0,1,1,r,1,0.488127,sub-36666980
NA,NA,NA,NA,NA,NA,NA,gelb,yellow,g,1,NA,NA,NA,0,2,2,g,1,0.4848719,sub-36666980
NA,NA,NA,NA,NA,NA,NA,blau,red,r,0,NA,NA,NA,0,3,3,b,0,0.5800062,sub-36666980
NA,NA,NA,NA,NA,NA,NA,rot,yellow,g,0,NA,NA,NA,0,4,4,g,1,0.7671027,sub-36666980
NA,NA,NA,NA,NA,NA,NA,rot,red,r,1,NA,NA,NA,0,5,5,r,1,0.5237953,sub-36666980
NA,NA,NA,NA,NA,NA,NA,gelb,yellow,g,1,NA,NA,NA,0,6,6,g,1,0.5284788,sub-36666980
NA,NA,NA,NA,NA,NA,NA,rot,blue,b,0,NA,NA,NA,0,7,7,b,1,1.0298531,sub-36666980
NA,NA,NA,NA,NA,NA,NA,blau,blue,b,1,NA,NA,NA,0,8,8,b,1,0.4891157,sub-36666980
NA,NA,NA,NA,NA,NA,NA,blau,blue,b,1,NA,NA,NA,0,9,9,b,1,0.4179518,sub-36666980
NA,NA,NA,NA,NA,NA,NA,blau,yellow,g,0,NA,NA,NA,0,10,10,g,1,0.4986893,sub-36666980
NA,NA,NA,NA,NA,NA,NA,rot,red,r,1,NA,NA,NA,0,11,11,r,1,0.3806599,sub-36666980
NA,NA,NA,NA,NA,NA,NA,blau,yellow,g,0,NA,NA,NA,1,0,12,g,1,0.6307018,sub-36666980
NA,NA,NA,NA,NA,NA,NA,rot,yellow,g,0,NA,NA,NA,1,1,13,g,1,0.4021896,sub-36666980
NA,NA,NA,NA,NA,NA,NA,gelb,yellow,g,1,NA,NA,NA,1,2,14,g,1,0.4360206,sub-36666980
NA,NA,NA,NA,NA,NA,NA,blau,blue,b,1,NA,NA,NA,1,3,15,b,1,0.4425909,sub-36666980
NA,NA,NA,NA,NA,NA,NA,rot,red,r,1,NA,NA,NA,1,4,16,r,1,0.3079956,sub-36666980
NA,NA,NA,NA,NA,NA,NA,gelb,blue,b,0,NA,NA,NA,1,5,17,b,1,0.6767623,sub-36666980
NA,NA,NA,NA,NA,NA,NA,rot,blue,b,0,NA,NA,NA,1,6,18,b,1,0.6620481,sub-36666980
NA,NA,NA,NA,NA,NA,NA,gelb,yellow,g,1,NA,NA,NA,1,7,19,g,1,0.4757487,sub-36666980
NA,NA,NA,NA,NA,NA,NA,gelb,red,r,0,NA,NA,NA,1,8,20,r,1,0.4083466,sub-36666980
NA,NA,NA,NA,NA,NA,NA,rot,red,r,1,NA,NA,NA,1,9,21,r,1,0.4600103,sub-36666980
NA,NA,NA,NA,NA,NA,NA,blau,blue,b,1,NA,NA,NA,1,10,22,b,1,0.4756977,sub-36666980
NA,NA,NA,NA,NA,NA,NA,blau,red,r,0,NA,NA,NA,1,11,23,r,1,0.5787909,sub-36666980
NA,NA,NA,NA,NA,NA,NA,blau,blue,b,1,NA,NA,NA,2,0,24,b,1,0.4007815,sub-36666980
NA,NA,NA,NA,NA,NA,NA,blau,blue,b,1,NA,NA,NA,2,1,25,b,1,0.4144065,sub-36666980
NA,NA,NA,NA,NA,NA,NA,gelb,blue,b,0,NA,NA,NA,2,2,26,b,1,0.4296883,sub-36666980
NA,NA,NA,NA,NA,NA,NA,rot,blue,b,0,NA,NA,NA,2,3,27,b,1,0.4481173,sub-36666980
NA,NA,NA,NA,NA,NA,NA,rot,red,r,1,NA,NA,NA,2,4,28,r,1,0.5835095,sub-36666980
NA,NA,NA,NA,NA,NA,NA,blau,red,r,0,NA,NA,NA,2,5,29,r,1,0.6225268,sub-36666980
NA,NA,NA,NA,NA,NA,NA,gelb,yellow,g,1,NA,NA,NA,2,6,30,g,1,0.4812091,sub-36666980
NA,NA,NA,NA,NA,NA,NA,rot,yellow,g,0,NA,NA,NA,2,7,31,g,1,0.4401956,sub-36666980
NA,NA,NA,NA,NA,NA,NA,blau,yellow,g,0,NA,NA,NA,2,8,32,g,1,0.4832379,sub-36666980
NA,NA,NA,NA,NA,NA,NA,gelb,red,r,0,NA,NA,NA,2,9,33,r,1,1.0347715,sub-36666980
NA,NA,NA,NA,NA,NA,NA,rot,red,r,1,NA,NA,NA,2,10,34,r,1,0.3903196,sub-36666980
NA,NA,NA,NA,NA,NA,NA,gelb,yellow,g,1,NA,NA,NA,2,11,35,g,1,0.5673975,sub-36666980
NA,NA,NA,NA,NA,NA,NA,gelb,yellow,g,1,NA,NA,NA,3,0,36,g,1,0.3862665,sub-36666980
NA,NA,NA,NA,NA,NA,NA,blau,red,r,0,NA,NA,NA,3,1,37,r,1,0.6474978,sub-36666980
NA,NA,NA,NA,NA,NA,NA,blau,yellow,g,0,NA,NA,NA,3,2,38,g,1,0.3654475,sub-36666980
NA,NA,NA,NA,NA,NA,NA,gelb,blue,b,0,NA,NA,NA,3,3,39,b,1,0.417416,sub-36666980
NA,NA,NA,NA,NA,NA,NA,rot,red,r,1,NA,NA,NA,3,4,40,r,1,0.3767341,sub-36666980
NA,NA,NA,NA,NA,NA,NA,blau,blue,b,1,NA,NA,NA,3,5,41,b,1,0.4951134,sub-36666980
NA,NA,NA,NA,NA,NA,NA,gelb,red,r,0,NA,NA,NA,3,6,42,r,1,0.5141804,sub-36666980
NA,NA,NA,NA,NA,NA,NA,gelb,yellow,g,1,NA,NA,NA,3,7,43,g,1,0.3660031,sub-36666980
NA,NA,NA,NA,NA,NA,NA,rot,blue,b,0,NA,NA,NA,3,8,44,b,1,0.5746503,sub-36666980
NA,NA,NA,NA,NA,NA,NA,rot,yellow,g,0,NA,NA,NA,3,9,45,g,1,0.5347855,sub-36666980
NA,NA,NA,NA,NA,NA,NA,blau,blue,b,1,NA,NA,NA,3,10,46,b,1,0.5873775,sub-36666980
NA,NA,NA,NA,NA,NA,NA,rot,red,r,1,NA,NA,NA,3,11,47,r,1,0.39861,sub-36666980
NA,NA,NA,NA,NA,NA,NA,rot,red,r,1,NA,NA,NA,4,0,48,r,1,0.424317,sub-36666980
NA,NA,NA,NA,NA,NA,NA,rot,red,r,1,NA,NA,NA,4,1,49,r,1,0.4264894,sub-36666980
NA,NA,NA,NA,NA,NA,NA,rot,yellow,g,0,NA,NA,NA,4,2,50,g,1,0.3378904,sub-36666980
NA,NA,NA,NA,NA,NA,NA,gelb,red,r,0,NA,NA,NA,4,3,51,r,1,0.5562178,sub-36666980
NA,NA,NA,NA,NA,NA,NA,blau,yellow,g,0,NA,NA,NA,4,4,52,g,1,0.5280227,sub-36666980
NA,NA,NA,NA,NA,NA,NA,gelb,blue,b,0,NA,NA,NA,4,5,53,b,1,0.5150683,sub-36666980
NA,NA,NA,NA,NA,NA,NA,blau,blue,b,1,NA,NA,NA,4,6,54,b,1,0.458772,sub-36666980
NA,NA,NA,NA,NA,NA,NA,gelb,yellow,g,1,NA,NA,NA,4,7,55,g,1,0.4417209,sub-36666980
NA,NA,NA,NA,NA,NA,NA,blau,red,r,0,NA,NA,NA,4,8,56,r,1,0.4102868,sub-36666980
NA,NA,NA,NA,NA,NA,NA,rot,blue,b,0,NA,NA,NA,4,9,57,b,1,0.478126,sub-36666980
NA,NA,NA,NA,NA,NA,NA,blau,blue,b,1,NA,NA,NA,4,10,58,b,1,0.4903959,sub-36666980
NA,NA,NA,NA,NA,NA,NA,gelb,yellow,g,1,NA,NA,NA,4,11,59,g,1,0.3872955,sub-36666980
NA,NA,NA,NA,NA,NA,NA,gelb,blue,b,0,NA,NA,NA,5,0,60,b,1,0.4747126,sub-36666980
NA,NA,NA,NA,NA,NA,NA,gelb,yellow,g,1,NA,NA,NA,5,1,61,g,1,0.5803495,sub-36666980
NA,NA,NA,NA,NA,NA,NA,blau,red,r,0,NA,NA,NA,5,2,62,r,1,0.4224766,sub-36666980
NA,NA,NA,NA,NA,NA,NA,blau,blue,b,1,NA,NA,NA,5,3,63,b,1,0.4526366,sub-36666980
NA,NA,NA,NA,NA,NA,NA,blau,yellow,g,0,NA,NA,NA,5,4,64,g,1,0.567513,sub-36666980
NA,NA,NA,NA,NA,NA,NA,rot,red,r,1,NA,NA,NA,5,5,65,r,1,0.5641748,sub-36666980
NA,NA,NA,NA,NA,NA,NA,gelb,yellow,g,1,NA,NA,NA,5,6,66,g,1,0.5720749,sub-36666980
NA,NA,NA,NA,NA,NA,NA,gelb,red,r,0,NA,NA,NA,5,7,67,b,0,0.4104953,sub-36666980
NA,NA,NA,NA,NA,NA,NA,blau,blue,b,1,NA,NA,NA,5,8,68,b,1,0.749196,sub-36666980
NA,NA,NA,NA,NA,NA,NA,rot,blue,b,0,NA,NA,NA,5,9,69,b,1,0.7676507,sub-36666980
NA,NA,NA,NA,NA,NA,NA,rot,yellow,g,0,NA,NA,NA,5,10,70,g,1,0.9004399,sub-36666980
NA,NA,NA,NA,NA,NA,NA,rot,red,r,1,NA,NA,NA,5,11,71,r,1,0.4898088,sub-36666980
NA,NA,NA,NA,NA,NA,NA,gelb,yellow,g,1,NA,NA,NA,6,0,72,g,1,0.8001103,sub-36666980
NA,NA,NA,NA,NA,NA,NA,rot,red,r,1,NA,NA,NA,6,1,73,r,1,0.6799067,sub-36666980
NA,NA,NA,NA,NA,NA,NA,blau,blue,b,1,NA,NA,NA,6,2,74,b,1,0.3873172,sub-36666980
NA,NA,NA,NA,NA,NA,NA,rot,red,r,1,NA,NA,NA,6,3,75,r,1,0.6561826,sub-36666980
NA,NA,NA,NA,NA,NA,NA,gelb,yellow,g,1,NA,NA,NA,6,4,76,g,1,0.5198032,sub-36666980
NA,NA,NA,NA,NA,NA,NA,blau,blue,b,1,NA,NA,NA,6,5,77,b,1,0.559672,sub-36666980
NA,NA,NA,NA,NA,NA,NA,rot,yellow,g,0,NA,NA,NA,6,6,78,g,1,0.9541635,sub-36666980
NA,NA,NA,NA,NA,NA,NA,gelb,red,r,0,NA,NA,NA,6,7,79,r,1,0.3937801,sub-36666980
NA,NA,NA,NA,NA,NA,NA,blau,red,r,0,NA,NA,NA,6,8,80,r,1,0.5437768,sub-36666980
NA,NA,NA,NA,NA,NA,NA,blau,yellow,g,0,NA,NA,NA,6,9,81,g,1,0.5169935,sub-36666980
NA,NA,NA,NA,NA,NA,NA,rot,blue,b,0,NA,NA,NA,6,10,82,b,1,0.5350277,sub-36666980
NA,NA,NA,NA,NA,NA,NA,gelb,blue,b,0,NA,NA,NA,6,11,83,b,1,0.3906357,sub-36666980
NA,NA,NA,NA,NA,NA,NA,gelb,blue,b,0,NA,NA,NA,7,0,84,b,1,0.4434244,sub-36666980
NA,NA,NA,NA,NA,NA,NA,blau,blue,b,1,NA,NA,NA,7,1,85,b,1,0.3694604,sub-36666980
NA,NA,NA,NA,NA,NA,NA,gelb,red,r,0,NA,NA,NA,7,2,86,r,1,0.67422820000000006,sub-36666980
NA,NA,NA,NA,NA,NA,NA,rot,red,r,1,NA,NA,NA,7,3,87,g,0,0.4998466,sub-36666980
NA,NA,NA,NA,NA,NA,NA,rot,blue,b,0,NA,NA,NA,7,4,88,b,1,0.9259781,sub-36666980
NA,NA,NA,NA,NA,NA,NA,rot,yellow,g,0,NA,NA,NA,7,5,89,g,1,1.077395,sub-36666980
NA,NA,NA,NA,NA,NA,NA,gelb,yellow,g,1,NA,NA,NA,7,6,90,g,1,0.4057469,sub-36666980
NA,NA,NA,NA,NA,NA,NA,blau,blue,b,1,NA,NA,NA,7,7,91,b,1,0.4444819,sub-36666980
NA,NA,NA,NA,NA,NA,NA,rot,red,r,1,NA,NA,NA,7,8,92,r,1,0.461349,sub-36666980
NA,NA,NA,NA,NA,NA,NA,gelb,yellow,g,1,NA,NA,NA,7,9,93,g,1,0.3717001,sub-36666980
NA,NA,NA,NA,NA,NA,NA,blau,yellow,g,0,NA,NA,NA,7,10,94,g,1,0.460761,sub-36666980
NA,NA,NA,NA,NA,NA,NA,blau,red,r,0,NA,NA,NA,7,11,95,r,1,0.7732976,sub-36666980
NA,NA,NA,NA,NA,NA,NA,rot,blue,b,0,NA,NA,NA,8,0,96,b,1,0.4393489,sub-36666980
NA,NA,NA,NA,NA,NA,NA,blau,yellow,g,0,NA,NA,NA,8,1,97,g,1,1.2540785,sub-36666980
NA,NA,NA,NA,NA,NA,NA,rot,red,r,1,NA,NA,NA,8,2,98,r,1,0.6357261,sub-36666980
NA,NA,NA,NA,NA,NA,NA,blau,blue,b,1,NA,NA,NA,8,3,99,b,1,0.4350369,sub-36666980
NA,NA,NA,NA,NA,NA,NA,blau,red,r,0,NA,NA,NA,8,4,100,r,1,0.8761249,sub-36666980
NA,NA,NA,NA,NA,NA,NA,gelb,yellow,g,1,NA,NA,NA,8,5,101,g,1,0.448456,sub-36666980
NA,NA,NA,NA,NA,NA,NA,gelb,red,r,0,NA,NA,NA,8,6,102,r,1,0.5122828,sub-36666980
NA,NA,NA,NA,NA,NA,NA,gelb,yellow,g,1,NA,NA,NA,8,7,103,g,1,0.4488744,sub-36666980
NA,NA,NA,NA,NA,NA,NA,gelb,blue,b,0,NA,NA,NA,8,8,104,b,1,0.3170426,sub-36666980
NA,NA,NA,NA,NA,NA,NA,rot,red,r,1,NA,NA,NA,8,9,105,r,1,0.4644876,sub-36666980
NA,NA,NA,NA,NA,NA,NA,rot,yellow,g,0,NA,NA,NA,8,10,106,g,1,0.4926521,sub-36666980
NA,NA,NA,NA,NA,NA,NA,blau,blue,b,1,NA,NA,NA,8,11,107,b,1,0.3615242,sub-36666980
NA,NA,NA,NA,NA,NA,NA,rot,yellow,g,0,NA,NA,NA,9,0,108,g,1,0.3987903,sub-36666980
NA,NA,NA,NA,NA,NA,NA,rot,red,r,1,NA,NA,NA,9,1,109,r,1,0.4624695,sub-36666980
NA,NA,NA,NA,NA,NA,NA,gelb,red,r,0,NA,NA,NA,9,2,110,r,1,0.4844792,sub-36666980
NA,NA,NA,NA,NA,NA,NA,blau,red,r,0,NA,NA,NA,9,3,111,r,1,0.4317968,sub-36666980
NA,NA,NA,NA,NA,NA,NA,rot,blue,b,0,NA,NA,NA,9,4,112,b,1,0.2818215,sub-36666980
NA,NA,NA,NA,NA,NA,NA,gelb,yellow,g,1,NA,NA,NA,9,5,113,g,1,0.4437926,sub-36666980
NA,NA,NA,NA,NA,NA,NA,gelb,yellow,g,1,NA,NA,NA,9,6,114,g,1,0.5212428,sub-36666980
NA,NA,NA,NA,NA,NA,NA,gelb,blue,b,0,NA,NA,NA,9,7,115,b,1,0.4854484,sub-36666980
NA,NA,NA,NA,NA,NA,NA,rot,red,r,1,NA,NA,NA,9,8,116,r,1,0.3144755,sub-36666980
NA,NA,NA,NA,NA,NA,NA,blau,blue,b,1,NA,NA,NA,9,9,117,b,1,0.3967559,sub-36666980
NA,NA,NA,NA,NA,NA,NA,blau,blue,b,1,NA,NA,NA,9,10,118,b,1,0.3937106,sub-36666980
NA,NA,NA,NA,NA,NA,NA,blau,yellow,g,0,NA,NA,NA,9,11,119,g,1,0.3557213,sub-36666980
NA,NA,NA,NA,NA,NA,NA,NA,NA,NA,NA,NA,NA,NA,NA,NA,NA,NA,NA,NA,sub-36666980
