wordCTK,colorCTK,corrAnsCTK,congruentCTK,wordPractice,colorPractice,congruentPractice,word,color,corrAns,congruent,trials_practice.thisRepN,trials_practice.thisTrialN,trials_practice.thisN,trials_test.thisRepN,trials_test.thisTrialN,trials_test.thisN,keyResp_test_run.keys,keyResp_test_run.corr,keyResp_test_run.rt,participant
NA,NA,NA,NA,NA,NA,NA,NA,NA,NA,NA,NA,NA,NA,NA,NA,NA,NA,NA,NA,sub-59991804
NA,NA,NA,NA,NA,NA,NA,NA,NA,NA,NA,NA,NA,NA,NA,NA,NA,NA,NA,NA,sub-59991804
test,blue,b,1,NA,NA,NA,NA,NA,NA,NA,NA,NA,NA,NA,NA,NA,NA,NA,NA,sub-59991804
test,red,r,1,NA,NA,NA,NA,NA,NA,NA,NA,NA,NA,NA,NA,NA,NA,NA,NA,sub-59991804
test,yellow,g,1,NA,NA,NA,NA,NA,NA,NA,NA,NA,NA,NA,NA,NA,NA,NA,NA,sub-59991804
test,blue,b,1,NA,NA,NA,NA,NA,NA,NA,NA,NA,NA,NA,NA,NA,NA,NA,NA,sub-59991804
test,yellow,g,1,NA,NA,NA,NA,NA,NA,NA,NA,NA,NA,NA,NA,NA,NA,NA,NA,sub-59991804
test,red,r,1,NA,NA,NA,NA,NA,NA,NA,NA,NA,NA,NA,NA,NA,NA,NA,NA,sub-59991804
test,red,r,1,NA,NA,NA,NA,NA,NA,NA,NA,NA,NA,NA,NA,NA,NA,NA,NA,sub-59991804
test,yellow,g,1,NA,NA,NA,NA,NA,NA,NA,NA,NA,NA,NA,NA,NA,NA,NA,NA,sub-59991804
test,blue,b,1,NA,NA,NA,NA,NA,NA,NA,NA,NA,NA,NA,NA,NA,NA,NA,NA,sub-59991804
test,red,r,1,NA,NA,NA,NA,NA,NA,NA,NA,NA,NA,NA,NA,NA,NA,NA,NA,sub-59991804
test,blue,b,1,NA,NA,NA,NA,NA,NA,NA,NA,NA,NA,NA,NA,NA,NA,NA,NA,sub-59991804
test,yellow,g,1,NA,NA,NA,NA,NA,NA,NA,NA,NA,NA,NA,NA,NA,NA,NA,NA,sub-59991804
NA,NA,NA,NA,NA,NA,NA,NA,NA,NA,NA,NA,NA,NA,NA,NA,NA,NA,NA,NA,sub-59991804
NA,NA,NA,NA,rot,red,1,NA,NA,NA,NA,0,0,0,NA,NA,NA,NA,NA,NA,sub-59991804
NA,NA,NA,NA,blau,blue,1,NA,NA,NA,NA,0,1,1,NA,NA,NA,NA,NA,NA,sub-59991804
NA,NA,NA,NA,rot,yellow,0,NA,NA,NA,NA,0,2,2,NA,NA,NA,NA,NA,NA,sub-59991804
NA,NA,NA,NA,rot,blue,0,NA,NA,NA,NA,0,3,3,NA,NA,NA,NA,NA,NA,sub-59991804
NA,NA,NA,NA,blau,red,0,NA,NA,NA,NA,0,4,4,NA,NA,NA,NA,NA,NA,sub-59991804
NA,NA,NA,NA,blau,blue,1,NA,NA,NA,NA,0,5,5,NA,NA,NA,NA,NA,NA,sub-59991804
NA,NA,NA,NA,gelb,yellow,1,NA,NA,NA,NA,0,6,6,NA,NA,NA,NA,NA,NA,sub-59991804
NA,NA,NA,NA,rot,red,1,NA,NA,NA,NA,0,7,7,NA,NA,NA,NA,NA,NA,sub-59991804
NA,NA,NA,NA,blau,yellow,0,NA,NA,NA,NA,0,8,8,NA,NA,NA,NA,NA,NA,sub-59991804
NA,NA,NA,NA,gelb,red,0,NA,NA,NA,NA,0,9,9,NA,NA,NA,NA,NA,NA,sub-59991804
NA,NA,NA,NA,gelb,yellow,1,NA,NA,NA,NA,0,10,10,NA,NA,NA,NA,NA,NA,sub-59991804
NA,NA,NA,NA,gelb,blue,0,NA,NA,NA,NA,0,11,11,NA,NA,NA,NA,NA,NA,sub-59991804
NA,NA,NA,NA,rot,blue,0,NA,NA,NA,NA,1,0,12,NA,NA,NA,NA,NA,NA,sub-59991804
NA,NA,NA,NA,blau,red,0,NA,NA,NA,NA,1,1,13,NA,NA,NA,NA,NA,NA,sub-59991804
NA,NA,NA,NA,gelb,yellow,1,NA,NA,NA,NA,1,2,14,NA,NA,NA,NA,NA,NA,sub-59991804
NA,NA,NA,NA,rot,yellow,0,NA,NA,NA,NA,1,3,15,NA,NA,NA,NA,NA,NA,sub-59991804
NA,NA,NA,NA,blau,yellow,0,NA,NA,NA,NA,1,4,16,NA,NA,NA,NA,NA,NA,sub-59991804
NA,NA,NA,NA,rot,red,1,NA,NA,NA,NA,1,5,17,NA,NA,NA,NA,NA,NA,sub-59991804
NA,NA,NA,NA,rot,red,1,NA,NA,NA,NA,1,6,18,NA,NA,NA,NA,NA,NA,sub-59991804
NA,NA,NA,NA,blau,blue,1,NA,NA,NA,NA,1,7,19,NA,NA,NA,NA,NA,NA,sub-59991804
NA,NA,NA,NA,blau,blue,1,NA,NA,NA,NA,1,8,20,NA,NA,NA,NA,NA,NA,sub-59991804
NA,NA,NA,NA,gelb,red,0,NA,NA,NA,NA,1,9,21,NA,NA,NA,NA,NA,NA,sub-59991804
NA,NA,NA,NA,gelb,yellow,1,NA,NA,NA,NA,1,10,22,NA,NA,NA,NA,NA,NA,sub-59991804
NA,NA,NA,NA,gelb,blue,0,NA,NA,NA,NA,1,11,23,NA,NA,NA,NA,NA,NA,sub-59991804
NA,NA,NA,NA,NA,NA,NA,NA,NA,NA,NA,NA,NA,NA,NA,NA,NA,NA,NA,NA,sub-59991804
NA,NA,NA,NA,NA,NA,NA,blau,red,r,0,NA,NA,NA,0,0,0,r,1,1.679697,sub-59991804
NA,NA,NA,NA,NA,NA,NA,gelb,blue,b,0,NA,NA,NA,0,1,1,b,1,0.7100548,sub-59991804
NA,NA,NA,NA,NA,NA,NA,gelb,yellow,g,1,NA,NA,NA,0,2,2,g,1,0.7774208,sub-59991804
NA,NA,NA,NA,NA,NA,NA,gelb,red,r,0,NA,NA,NA,0,3,3,r,1,1.1702116,sub-59991804
NA,NA,NA,NA,NA,NA,NA,rot,red,r,1,NA,NA,NA,0,4,4,r,1,1.3362197,sub-59991804
NA,NA,NA,NA,NA,NA,NA,gelb,yellow,g,1,NA,NA,NA,0,5,5,g,1,0.7724784,sub-59991804
NA,NA,NA,NA,NA,NA,NA,rot,yellow,g,0,NA,NA,NA,0,6,6,g,1,1.1154866,sub-59991804
NA,NA,NA,NA,NA,NA,NA,rot,red,r,1,NA,NA,NA,0,7,7,r,1,0.7248018,sub-59991804
NA,NA,NA,NA,NA,NA,NA,blau,yellow,g,0,NA,NA,NA,0,8,8,g,1,1.0439861,sub-59991804
NA,NA,NA,NA,NA,NA,NA,blau,blue,b,1,NA,NA,NA,0,9,9,b,1,0.6802124,sub-59991804
NA,NA,NA,NA,NA,NA,NA,rot,blue,b,0,NA,NA,NA,0,10,10,b,1,0.9841626,sub-59991804
NA,NA,NA,NA,NA,NA,NA,blau,blue,b,1,NA,NA,NA,0,11,11,b,1,0.6298477,sub-59991804
NA,NA,NA,NA,NA,NA,NA,blau,blue,b,1,NA,NA,NA,1,0,12,b,1,0.6183993,sub-59991804
NA,NA,NA,NA,NA,NA,NA,blau,yellow,g,0,NA,NA,NA,1,1,13,g,1,0.70352460000000006,sub-59991804
NA,NA,NA,NA,NA,NA,NA,gelb,yellow,g,1,NA,NA,NA,1,2,14,g,1,0.560144,sub-59991804
NA,NA,NA,NA,NA,NA,NA,rot,blue,b,0,NA,NA,NA,1,3,15,b,1,1.4369145,sub-59991804
NA,NA,NA,NA,NA,NA,NA,gelb,yellow,g,1,NA,NA,NA,1,4,16,g,1,1.229085,sub-59991804
NA,NA,NA,NA,NA,NA,NA,blau,blue,b,1,NA,NA,NA,1,5,17,b,1,0.7263602,sub-59991804
NA,NA,NA,NA,NA,NA,NA,rot,yellow,g,0,NA,NA,NA,1,6,18,g,1,1.145181,sub-59991804
NA,NA,NA,NA,NA,NA,NA,rot,red,r,1,NA,NA,NA,1,7,19,r,1,0.7908072,sub-59991804
NA,NA,NA,NA,NA,NA,NA,gelb,red,r,0,NA,NA,NA,1,8,20,r,1,0.5311148,sub-59991804
NA,NA,NA,NA,NA,NA,NA,gelb,blue,b,0,NA,NA,NA,1,9,21,b,1,0.8365305,sub-59991804
NA,NA,NA,NA,NA,NA,NA,rot,red,r,1,NA,NA,NA,1,10,22,r,1,1.1029328,sub-59991804
NA,NA,NA,NA,NA,NA,NA,blau,red,r,0,NA,NA,NA,1,11,23,r,1,0.7208437,sub-59991804
NA,NA,NA,NA,NA,NA,NA,blau,blue,b,1,NA,NA,NA,2,0,24,b,1,0.8018594,sub-59991804
NA,NA,NA,NA,NA,NA,NA,blau,red,r,0,NA,NA,NA,2,1,25,r,1,0.8145071,sub-59991804
NA,NA,NA,NA,NA,NA,NA,rot,red,r,1,NA,NA,NA,2,2,26,r,1,1.1400543,sub-59991804
NA,NA,NA,NA,NA,NA,NA,rot,yellow,g,0,NA,NA,NA,2,3,27,g,1,0.614224,sub-59991804
NA,NA,NA,NA,NA,NA,NA,gelb,yellow,g,1,NA,NA,NA,2,4,28,g,1,0.5638987,sub-59991804
NA,NA,NA,NA,NA,NA,NA,blau,yellow,g,0,NA,NA,NA,2,5,29,g,1,0.796856,sub-59991804
NA,NA,NA,NA,NA,NA,NA,gelb,blue,b,0,NA,NA,NA,2,6,30,b,1,0.6878663,sub-59991804
NA,NA,NA,NA,NA,NA,NA,gelb,red,r,0,NA,NA,NA,2,7,31,r,1,0.6663237,sub-59991804
NA,NA,NA,NA,NA,NA,NA,blau,blue,b,1,NA,NA,NA,2,8,32,b,1,0.7104731,sub-59991804
NA,NA,NA,NA,NA,NA,NA,rot,red,r,1,NA,NA,NA,2,9,33,r,1,0.600942,sub-59991804
NA,NA,NA,NA,NA,NA,NA,gelb,yellow,g,1,NA,NA,NA,2,10,34,g,1,0.610887,sub-59991804
NA,NA,NA,NA,NA,NA,NA,rot,blue,b,0,NA,NA,NA,2,11,35,b,1,1.0677512,sub-59991804
NA,NA,NA,NA,NA,NA,NA,rot,red,r,1,NA,NA,NA,3,0,36,r,1,0.7858462,sub-59991804
NA,NA,NA,NA,NA,NA,NA,rot,red,r,1,NA,NA,NA,3,1,37,r,1,0.7935602,sub-59991804
NA,NA,NA,NA,NA,NA,NA,blau,red,r,0,NA,NA,NA,3,2,38,r,1,0.5026502,sub-59991804
NA,NA,NA,NA,NA,NA,NA,gelb,yellow,g,1,NA,NA,NA,3,3,39,g,1,0.7778621,sub-59991804
NA,NA,NA,NA,NA,NA,NA,gelb,red,r,0,NA,NA,NA,3,4,40,r,1,0.7496371,sub-59991804
NA,NA,NA,NA,NA,NA,NA,blau,blue,b,1,NA,NA,NA,3,5,41,b,1,0.6860187,sub-59991804
NA,NA,NA,NA,NA,NA,NA,gelb,blue,b,0,NA,NA,NA,3,6,42,b,1,1.0595222,sub-59991804
NA,NA,NA,NA,NA,NA,NA,blau,yellow,g,0,NA,NA,NA,3,7,43,g,1,0.9034942,sub-59991804
NA,NA,NA,NA,NA,NA,NA,blau,blue,b,1,NA,NA,NA,3,8,44,b,1,1.1744854,sub-59991804
NA,NA,NA,NA,NA,NA,NA,gelb,yellow,g,1,NA,NA,NA,3,9,45,g,1,0.5753858,sub-59991804
NA,NA,NA,NA,NA,NA,NA,rot,yellow,g,0,NA,NA,NA,3,10,46,g,1,0.8410652,sub-59991804
NA,NA,NA,NA,NA,NA,NA,rot,blue,b,0,NA,NA,NA,3,11,47,b,1,0.8759621,sub-59991804
NA,NA,NA,NA,NA,NA,NA,rot,red,r,1,NA,NA,NA,4,0,48,r,1,0.484778,sub-59991804
NA,NA,NA,NA,NA,NA,NA,blau,yellow,g,0,NA,NA,NA,4,1,49,g,1,0.61617980000000006,sub-59991804
NA,NA,NA,NA,NA,NA,NA,blau,red,r,0,NA,NA,NA,4,2,50,r,1,0.7303777,sub-59991804
NA,NA,NA,NA,NA,NA,NA,rot,yellow,g,0,NA,NA,NA,4,3,51,g,1,0.9533777,sub-59991804
NA,NA,NA,NA,NA,NA,NA,gelb,red,r,0,NA,NA,NA,4,4,52,r,1,1.0169048,sub-59991804
NA,NA,NA,NA,NA,NA,NA,gelb,yellow,g,1,NA,NA,NA,4,5,53,g,1,0.7178083,sub-59991804
NA,NA,NA,NA,NA,NA,NA,rot,blue,b,0,NA,NA,NA,4,6,54,b,1,0.8365393,sub-59991804
NA,NA,NA,NA,NA,NA,NA,gelb,yellow,g,1,NA,NA,NA,4,7,55,g,1,0.6405355,sub-59991804
NA,NA,NA,NA,NA,NA,NA,blau,blue,b,1,NA,NA,NA,4,8,56,b,1,0.6403538,sub-59991804
NA,NA,NA,NA,NA,NA,NA,rot,red,r,1,NA,NA,NA,4,9,57,r,1,0.820863,sub-59991804
NA,NA,NA,NA,NA,NA,NA,gelb,blue,b,0,NA,NA,NA,4,10,58,b,1,1.0508566,sub-59991804
NA,NA,NA,NA,NA,NA,NA,blau,blue,b,1,NA,NA,NA,4,11,59,b,1,0.6879816,sub-59991804
NA,NA,NA,NA,NA,NA,NA,gelb,yellow,g,1,NA,NA,NA,5,0,60,g,1,0.9010325,sub-59991804
NA,NA,NA,NA,NA,NA,NA,rot,blue,b,0,NA,NA,NA,5,1,61,b,1,0.9820408,sub-59991804
NA,NA,NA,NA,NA,NA,NA,rot,red,r,1,NA,NA,NA,5,2,62,r,1,0.6464683,sub-59991804
NA,NA,NA,NA,NA,NA,NA,gelb,yellow,g,1,NA,NA,NA,5,3,63,g,1,0.8455942,sub-59991804
NA,NA,NA,NA,NA,NA,NA,blau,blue,b,1,NA,NA,NA,5,4,64,b,1,0.5556336,sub-59991804
NA,NA,NA,NA,NA,NA,NA,rot,red,r,1,NA,NA,NA,5,5,65,r,1,0.6187736,sub-59991804
NA,NA,NA,NA,NA,NA,NA,blau,yellow,g,0,NA,NA,NA,5,6,66,g,1,1.360198,sub-59991804
NA,NA,NA,NA,NA,NA,NA,rot,yellow,g,0,NA,NA,NA,5,7,67,g,1,0.7683134,sub-59991804
NA,NA,NA,NA,NA,NA,NA,blau,red,r,0,NA,NA,NA,5,8,68,r,1,0.8865706,sub-59991804
NA,NA,NA,NA,NA,NA,NA,gelb,blue,b,0,NA,NA,NA,5,9,69,b,1,0.7675069,sub-59991804
NA,NA,NA,NA,NA,NA,NA,gelb,red,r,0,NA,NA,NA,5,10,70,r,1,1.666066,sub-59991804
NA,NA,NA,NA,NA,NA,NA,blau,blue,b,1,NA,NA,NA,5,11,71,b,1,0.894527,sub-59991804
NA,NA,NA,NA,NA,NA,NA,gelb,yellow,g,1,NA,NA,NA,6,0,72,g,1,0.5999997,sub-59991804
NA,NA,NA,NA,NA,NA,NA,gelb,red,r,0,NA,NA,NA,6,1,73,r,1,0.6912945,sub-59991804
NA,NA,NA,NA,NA,NA,NA,blau,blue,b,1,NA,NA,NA,6,2,74,b,1,0.6918471,sub-59991804
NA,NA,NA,NA,NA,NA,NA,rot,red,r,1,NA,NA,NA,6,3,75,r,1,0.7233179,sub-59991804
NA,NA,NA,NA,NA,NA,NA,gelb,yellow,g,1,NA,NA,NA,6,4,76,g,1,0.5951222,sub-59991804
NA,NA,NA,NA,NA,NA,NA,blau,blue,b,1,NA,NA,NA,6,5,77,b,1,0.7760374,sub-59991804
NA,NA,NA,NA,NA,NA,NA,rot,red,r,1,NA,NA,NA,6,6,78,r,1,0.6212879,sub-59991804
NA,NA,NA,NA,NA,NA,NA,gelb,blue,b,0,NA,NA,NA,6,7,79,b,1,0.6287172,sub-59991804
NA,NA,NA,NA,NA,NA,NA,blau,yellow,g,0,NA,NA,NA,6,8,80,g,1,0.7453953,sub-59991804
NA,NA,NA,NA,NA,NA,NA,rot,blue,b,0,NA,NA,NA,6,9,81,b,1,0.8009601,sub-59991804
NA,NA,NA,NA,NA,NA,NA,rot,yellow,g,0,NA,NA,NA,6,10,82,g,1,1.5093618,sub-59991804
NA,NA,NA,NA,NA,NA,NA,blau,red,r,0,NA,NA,NA,6,11,83,r,1,0.5921301,sub-59991804
NA,NA,NA,NA,NA,NA,NA,rot,blue,b,0,NA,NA,NA,7,0,84,b,1,0.6978216,sub-59991804
NA,NA,NA,NA,NA,NA,NA,blau,blue,b,1,NA,NA,NA,7,1,85,b,1,0.6994773,sub-59991804
NA,NA,NA,NA,NA,NA,NA,gelb,blue,b,0,NA,NA,NA,7,2,86,b,1,0.6056493,sub-59991804
NA,NA,NA,NA,NA,NA,NA,gelb,red,r,0,NA,NA,NA,7,3,87,r,1,0.6238275,sub-59991804
NA,NA,NA,NA,NA,NA,NA,gelb,yellow,g,1,NA,NA,NA,7,4,88,g,1,1.2116121,sub-59991804
NA,NA,NA,NA,NA,NA,NA,gelb,yellow,g,1,NA,NA,NA,7,5,89,g,1,0.6510451,sub-59991804
NA,NA,NA,NA,NA,NA,NA,blau,red,r,0,NA,NA,NA,7,6,90,r,1,0.730712,sub-59991804
NA,NA,NA,NA,NA,NA,NA,rot,red,r,1,NA,NA,NA,7,7,91,r,1,0.5424783,sub-59991804
NA,NA,NA,NA,NA,NA,NA,rot,red,r,1,NA,NA,NA,7,8,92,r,1,0.6294972,sub-59991804
NA,NA,NA,NA,NA,NA,NA,blau,blue,b,1,NA,NA,NA,7,9,93,b,1,0.7618966,sub-59991804
NA,NA,NA,NA,NA,NA,NA,rot,yellow,g,0,NA,NA,NA,7,10,94,g,1,1.3248488,sub-59991804
NA,NA,NA,NA,NA,NA,NA,blau,yellow,g,0,NA,NA,NA,7,11,95,g,1,0.7311809,sub-59991804
NA,NA,NA,NA,NA,NA,NA,rot,red,r,1,NA,NA,NA,8,0,96,r,1,0.7862,sub-59991804
NA,NA,NA,NA,NA,NA,NA,gelb,blue,b,0,NA,NA,NA,8,1,97,b,1,0.5520691,sub-59991804
NA,NA,NA,NA,NA,NA,NA,rot,red,r,1,NA,NA,NA,8,2,98,r,1,0.6045872,sub-59991804
NA,NA,NA,NA,NA,NA,NA,blau,blue,b,1,NA,NA,NA,8,3,99,b,1,0.5057713,sub-59991804
NA,NA,NA,NA,NA,NA,NA,blau,yellow,g,0,NA,NA,NA,8,4,100,g,1,0.7349707,sub-59991804
NA,NA,NA,NA,NA,NA,NA,gelb,yellow,g,1,NA,NA,NA,8,5,101,g,1,0.6175389,sub-59991804
NA,NA,NA,NA,NA,NA,NA,gelb,red,r,0,NA,NA,NA,8,6,102,r,1,0.9345917,sub-59991804
NA,NA,NA,NA,NA,NA,NA,rot,yellow,g,0,NA,NA,NA,8,7,103,g,1,0.8490162,sub-59991804
NA,NA,NA,NA,NA,NA,NA,blau,red,r,0,NA,NA,NA,8,8,104,r,1,0.7211177,sub-59991804
NA,NA,NA,NA,NA,NA,NA,rot,blue,b,0,NA,NA,NA,8,9,105,b,1,0.7589231,sub-59991804
NA,NA,NA,NA,NA,NA,NA,gelb,yellow,g,1,NA,NA,NA,8,10,106,g,1,0.6824112,sub-59991804
NA,NA,NA,NA,NA,NA,NA,blau,blue,b,1,NA,NA,NA,8,11,107,b,1,1.0666323,sub-59991804
NA,NA,NA,NA,NA,NA,NA,blau,blue,b,1,NA,NA,NA,9,0,108,b,1,1.2528528,sub-59991804
NA,NA,NA,NA,NA,NA,NA,blau,red,r,0,NA,NA,NA,9,1,109,r,1,5.5570556,sub-59991804
NA,NA,NA,NA,NA,NA,NA,blau,yellow,g,0,NA,NA,NA,9,2,110,g,1,3.4379747,sub-59991804
NA,NA,NA,NA,NA,NA,NA,rot,blue,b,0,NA,NA,NA,9,3,111,b,1,1.0570886,sub-59991804
NA,NA,NA,NA,NA,NA,NA,rot,red,r,1,NA,NA,NA,9,4,112,r,1,0.8467284,sub-59991804
NA,NA,NA,NA,NA,NA,NA,gelb,yellow,g,1,NA,NA,NA,9,5,113,g,1,0.7508375,sub-59991804
NA,NA,NA,NA,NA,NA,NA,blau,blue,b,1,NA,NA,NA,9,6,114,b,1,0.7307238,sub-59991804
NA,NA,NA,NA,NA,NA,NA,gelb,yellow,g,1,NA,NA,NA,9,7,115,g,1,0.5407592,sub-59991804
NA,NA,NA,NA,NA,NA,NA,gelb,red,r,0,NA,NA,NA,9,8,116,r,1,1.7404409,sub-59991804
NA,NA,NA,NA,NA,NA,NA,rot,red,r,1,NA,NA,NA,9,9,117,r,1,0.8729281,sub-59991804
NA,NA,NA,NA,NA,NA,NA,rot,yellow,g,0,NA,NA,NA,9,10,118,g,1,1.032438,sub-59991804
NA,NA,NA,NA,NA,NA,NA,gelb,blue,b,0,NA,NA,NA,9,11,119,b,1,2.0831194,sub-59991804
NA,NA,NA,NA,NA,NA,NA,NA,NA,NA,NA,NA,NA,NA,NA,NA,NA,NA,NA,NA,sub-59991804
