wordCTK,colorCTK,corrAnsCTK,congruentCTK,wordPractice,colorPractice,congruentPractice,word,color,corrAns,congruent,trials_practice.thisRepN,trials_practice.thisTrialN,trials_practice.thisN,trials_test.thisRepN,trials_test.thisTrialN,trials_test.thisN,keyResp_test_run.keys,keyResp_test_run.corr,keyResp_test_run.rt,participant
NA,NA,NA,NA,NA,NA,NA,NA,NA,NA,NA,NA,NA,NA,NA,NA,NA,NA,NA,NA,sub-71383052
NA,NA,NA,NA,NA,NA,NA,NA,NA,NA,NA,NA,NA,NA,NA,NA,NA,NA,NA,NA,sub-71383052
test,blue,b,1,NA,NA,NA,NA,NA,NA,NA,NA,NA,NA,NA,NA,NA,NA,NA,NA,sub-71383052
test,yellow,g,1,NA,NA,NA,NA,NA,NA,NA,NA,NA,NA,NA,NA,NA,NA,NA,NA,sub-71383052
test,red,r,1,NA,NA,NA,NA,NA,NA,NA,NA,NA,NA,NA,NA,NA,NA,NA,NA,sub-71383052
test,red,r,1,NA,NA,NA,NA,NA,NA,NA,NA,NA,NA,NA,NA,NA,NA,NA,NA,sub-71383052
test,yellow,g,1,NA,NA,NA,NA,NA,NA,NA,NA,NA,NA,NA,NA,NA,NA,NA,NA,sub-71383052
test,blue,b,1,NA,NA,NA,NA,NA,NA,NA,NA,NA,NA,NA,NA,NA,NA,NA,NA,sub-71383052
test,blue,b,1,NA,NA,NA,NA,NA,NA,NA,NA,NA,NA,NA,NA,NA,NA,NA,NA,sub-71383052
test,red,r,1,NA,NA,NA,NA,NA,NA,NA,NA,NA,NA,NA,NA,NA,NA,NA,NA,sub-71383052
test,yellow,g,1,NA,NA,NA,NA,NA,NA,NA,NA,NA,NA,NA,NA,NA,NA,NA,NA,sub-71383052
test,yellow,g,1,NA,NA,NA,NA,NA,NA,NA,NA,NA,NA,NA,NA,NA,NA,NA,NA,sub-71383052
test,blue,b,1,NA,NA,NA,NA,NA,NA,NA,NA,NA,NA,NA,NA,NA,NA,NA,NA,sub-71383052
test,red,r,1,NA,NA,NA,NA,NA,NA,NA,NA,NA,NA,NA,NA,NA,NA,NA,NA,sub-71383052
NA,NA,NA,NA,NA,NA,NA,NA,NA,NA,NA,NA,NA,NA,NA,NA,NA,NA,NA,NA,sub-71383052
NA,NA,NA,NA,rot,red,1,NA,NA,NA,NA,0,0,0,NA,NA,NA,NA,NA,NA,sub-71383052
NA,NA,NA,NA,rot,blue,0,NA,NA,NA,NA,0,1,1,NA,NA,NA,NA,NA,NA,sub-71383052
NA,NA,NA,NA,gelb,yellow,1,NA,NA,NA,NA,0,2,2,NA,NA,NA,NA,NA,NA,sub-71383052
NA,NA,NA,NA,gelb,yellow,1,NA,NA,NA,NA,0,3,3,NA,NA,NA,NA,NA,NA,sub-71383052
NA,NA,NA,NA,blau,blue,1,NA,NA,NA,NA,0,4,4,NA,NA,NA,NA,NA,NA,sub-71383052
NA,NA,NA,NA,gelb,blue,0,NA,NA,NA,NA,0,5,5,NA,NA,NA,NA,NA,NA,sub-71383052
NA,NA,NA,NA,rot,red,1,NA,NA,NA,NA,0,6,6,NA,NA,NA,NA,NA,NA,sub-71383052
NA,NA,NA,NA,rot,yellow,0,NA,NA,NA,NA,0,7,7,NA,NA,NA,NA,NA,NA,sub-71383052
NA,NA,NA,NA,blau,blue,1,NA,NA,NA,NA,0,8,8,NA,NA,NA,NA,NA,NA,sub-71383052
NA,NA,NA,NA,blau,yellow,0,NA,NA,NA,NA,0,9,9,NA,NA,NA,NA,NA,NA,sub-71383052
NA,NA,NA,NA,gelb,red,0,NA,NA,NA,NA,0,10,10,NA,NA,NA,NA,NA,NA,sub-71383052
NA,NA,NA,NA,blau,red,0,NA,NA,NA,NA,0,11,11,NA,NA,NA,NA,NA,NA,sub-71383052
NA,NA,NA,NA,gelb,yellow,1,NA,NA,NA,NA,1,0,12,NA,NA,NA,NA,NA,NA,sub-71383052
NA,NA,NA,NA,blau,yellow,0,NA,NA,NA,NA,1,1,13,NA,NA,NA,NA,NA,NA,sub-71383052
NA,NA,NA,NA,blau,blue,1,NA,NA,NA,NA,1,2,14,NA,NA,NA,NA,NA,NA,sub-71383052
NA,NA,NA,NA,blau,red,0,NA,NA,NA,NA,1,3,15,NA,NA,NA,NA,NA,NA,sub-71383052
NA,NA,NA,NA,gelb,blue,0,NA,NA,NA,NA,1,4,16,NA,NA,NA,NA,NA,NA,sub-71383052
NA,NA,NA,NA,gelb,yellow,1,NA,NA,NA,NA,1,5,17,NA,NA,NA,NA,NA,NA,sub-71383052
NA,NA,NA,NA,gelb,red,0,NA,NA,NA,NA,1,6,18,NA,NA,NA,NA,NA,NA,sub-71383052
NA,NA,NA,NA,rot,red,1,NA,NA,NA,NA,1,7,19,NA,NA,NA,NA,NA,NA,sub-71383052
NA,NA,NA,NA,rot,yellow,0,NA,NA,NA,NA,1,8,20,NA,NA,NA,NA,NA,NA,sub-71383052
NA,NA,NA,NA,rot,red,1,NA,NA,NA,NA,1,9,21,NA,NA,NA,NA,NA,NA,sub-71383052
NA,NA,NA,NA,blau,blue,1,NA,NA,NA,NA,1,10,22,NA,NA,NA,NA,NA,NA,sub-71383052
NA,NA,NA,NA,rot,blue,0,NA,NA,NA,NA,1,11,23,NA,NA,NA,NA,NA,NA,sub-71383052
NA,NA,NA,NA,NA,NA,NA,NA,NA,NA,NA,NA,NA,NA,NA,NA,NA,NA,NA,NA,sub-71383052
NA,NA,NA,NA,NA,NA,NA,gelb,yellow,g,1,NA,NA,NA,0,0,0,g,1,0.8324678000062704,sub-71383052
NA,NA,NA,NA,NA,NA,NA,blau,blue,b,1,NA,NA,NA,0,1,1,b,1,0.632581299985759,sub-71383052
NA,NA,NA,NA,NA,NA,NA,rot,red,r,1,NA,NA,NA,0,2,2,r,1,0.3397989999502897,sub-71383052
NA,NA,NA,NA,NA,NA,NA,rot,red,r,1,NA,NA,NA,0,3,3,r,1,0.4475492999772541,sub-71383052
NA,NA,NA,NA,NA,NA,NA,gelb,blue,b,0,NA,NA,NA,0,4,4,b,1,0.6225842999992892,sub-71383052
NA,NA,NA,NA,NA,NA,NA,gelb,yellow,g,1,NA,NA,NA,0,5,5,g,1,0.35510449996218085,sub-71383052
NA,NA,NA,NA,NA,NA,NA,gelb,red,r,0,NA,NA,NA,0,6,6,r,1,0.9685068000108004,sub-71383052
NA,NA,NA,NA,NA,NA,NA,blau,blue,b,1,NA,NA,NA,0,7,7,b,1,0.4204969999846071,sub-71383052
NA,NA,NA,NA,NA,NA,NA,rot,blue,b,0,NA,NA,NA,0,8,8,b,1,1.278178400010802,sub-71383052
NA,NA,NA,NA,NA,NA,NA,blau,red,r,0,NA,NA,NA,0,9,9,r,1,1.0271283000474796,sub-71383052
NA,NA,NA,NA,NA,NA,NA,rot,yellow,g,0,NA,NA,NA,0,10,10,g,1,0.42283539997879416,sub-71383052
NA,NA,NA,NA,NA,NA,NA,blau,yellow,g,0,NA,NA,NA,0,11,11,g,1,0.6505432000267319,sub-71383052
NA,NA,NA,NA,NA,NA,NA,gelb,blue,b,0,NA,NA,NA,1,0,12,b,1,0.5998753000167198,sub-71383052
NA,NA,NA,NA,NA,NA,NA,rot,red,r,1,NA,NA,NA,1,1,13,r,1,0.30374260002281517,sub-71383052
NA,NA,NA,NA,NA,NA,NA,gelb,yellow,g,1,NA,NA,NA,1,2,14,g,1,0.4671339999767952,sub-71383052
NA,NA,NA,NA,NA,NA,NA,blau,yellow,g,0,NA,NA,NA,1,3,15,g,1,0.8066495999810286,sub-71383052
NA,NA,NA,NA,NA,NA,NA,rot,yellow,g,0,NA,NA,NA,1,4,16,g,1,0.8108179999981076,sub-71383052
NA,NA,NA,NA,NA,NA,NA,blau,blue,b,1,NA,NA,NA,1,5,17,b,1,0.35834069998236373,sub-71383052
NA,NA,NA,NA,NA,NA,NA,gelb,yellow,g,1,NA,NA,NA,1,6,18,g,1,0.4288886000285856,sub-71383052
NA,NA,NA,NA,NA,NA,NA,blau,red,r,0,NA,NA,NA,1,7,19,r,1,0.5735764999990351,sub-71383052
NA,NA,NA,NA,NA,NA,NA,rot,red,r,1,NA,NA,NA,1,8,20,r,1,0.3520518000004813,sub-71383052
NA,NA,NA,NA,NA,NA,NA,blau,blue,b,1,NA,NA,NA,1,9,21,b,1,0.43470759998308495,sub-71383052
NA,NA,NA,NA,NA,NA,NA,rot,blue,b,0,NA,NA,NA,1,10,22,b,1,0.9402201999910176,sub-71383052
NA,NA,NA,NA,NA,NA,NA,gelb,red,r,0,NA,NA,NA,1,11,23,r,1,0.7800531999673694,sub-71383052
NA,NA,NA,NA,NA,NA,NA,gelb,yellow,g,1,NA,NA,NA,2,0,24,g,1,0.2907386000151746,sub-71383052
NA,NA,NA,NA,NA,NA,NA,blau,blue,b,1,NA,NA,NA,2,1,25,b,1,0.3109198000165634,sub-71383052
NA,NA,NA,NA,NA,NA,NA,rot,red,r,1,NA,NA,NA,2,2,26,r,1,0.26779369998257607,sub-71383052
NA,NA,NA,NA,NA,NA,NA,gelb,blue,b,0,NA,NA,NA,2,3,27,b,1,0.4796528999577277,sub-71383052
NA,NA,NA,NA,NA,NA,NA,rot,blue,b,0,NA,NA,NA,2,4,28,b,1,0.48341980000259355,sub-71383052
NA,NA,NA,NA,NA,NA,NA,blau,blue,b,1,NA,NA,NA,2,5,29,b,1,0.5091821000096388,sub-71383052
NA,NA,NA,NA,NA,NA,NA,rot,red,r,1,NA,NA,NA,2,6,30,g,0,0.4601600999594666,sub-71383052
NA,NA,NA,NA,NA,NA,NA,rot,yellow,g,0,NA,NA,NA,2,7,31,g,1,0.7266349000274204,sub-71383052
NA,NA,NA,NA,NA,NA,NA,blau,red,r,0,NA,NA,NA,2,8,32,b,0,0.730162099993322,sub-71383052
NA,NA,NA,NA,NA,NA,NA,gelb,yellow,g,1,NA,NA,NA,2,9,33,g,1,1.6920627999934368,sub-71383052
NA,NA,NA,NA,NA,NA,NA,gelb,red,r,0,NA,NA,NA,2,10,34,r,1,0.6307086999877356,sub-71383052
NA,NA,NA,NA,NA,NA,NA,blau,yellow,g,0,NA,NA,NA,2,11,35,b,0,0.5999965000082739,sub-71383052
NA,NA,NA,NA,NA,NA,NA,blau,blue,b,1,NA,NA,NA,3,0,36,b,1,0.554879000002984,sub-71383052
NA,NA,NA,NA,NA,NA,NA,blau,yellow,g,0,NA,NA,NA,3,1,37,g,1,0.7136000000173226,sub-71383052
NA,NA,NA,NA,NA,NA,NA,blau,blue,b,1,NA,NA,NA,3,2,38,b,1,0.4847052999539301,sub-71383052
NA,NA,NA,NA,NA,NA,NA,gelb,red,r,0,NA,NA,NA,3,3,39,r,1,0.6469249000074342,sub-71383052
NA,NA,NA,NA,NA,NA,NA,gelb,yellow,g,1,NA,NA,NA,3,4,40,g,1,0.5418931000167504,sub-71383052
NA,NA,NA,NA,NA,NA,NA,rot,yellow,g,0,NA,NA,NA,3,5,41,g,1,0.7225622000405565,sub-71383052
NA,NA,NA,NA,NA,NA,NA,rot,red,r,1,NA,NA,NA,3,6,42,r,1,1.0531715999823064,sub-71383052
NA,NA,NA,NA,NA,NA,NA,rot,red,r,1,NA,NA,NA,3,7,43,r,1,0.44052350003039464,sub-71383052
NA,NA,NA,NA,NA,NA,NA,gelb,yellow,g,1,NA,NA,NA,3,8,44,g,1,0.5272230000118725,sub-71383052
NA,NA,NA,NA,NA,NA,NA,blau,red,r,0,NA,NA,NA,3,9,45,r,1,0.8949472999665886,sub-71383052
NA,NA,NA,NA,NA,NA,NA,gelb,blue,b,0,NA,NA,NA,3,10,46,b,1,0.5390953999594785,sub-71383052
NA,NA,NA,NA,NA,NA,NA,rot,blue,b,0,NA,NA,NA,3,11,47,b,1,0.6719622000236996,sub-71383052
NA,NA,NA,NA,NA,NA,NA,blau,yellow,g,0,NA,NA,NA,4,0,48,g,1,0.8376435000100173,sub-71383052
NA,NA,NA,NA,NA,NA,NA,blau,red,r,0,NA,NA,NA,4,1,49,r,1,0.9425269999774172,sub-71383052
NA,NA,NA,NA,NA,NA,NA,blau,blue,b,1,NA,NA,NA,4,2,50,b,1,0.45521059999009594,sub-71383052
NA,NA,NA,NA,NA,NA,NA,gelb,red,r,0,NA,NA,NA,4,3,51,r,1,0.6385227999999188,sub-71383052
NA,NA,NA,NA,NA,NA,NA,rot,blue,b,0,NA,NA,NA,4,4,52,b,1,0.7334725999971852,sub-71383052
NA,NA,NA,NA,NA,NA,NA,gelb,blue,b,0,NA,NA,NA,4,5,53,b,1,0.5257489000214264,sub-71383052
NA,NA,NA,NA,NA,NA,NA,gelb,yellow,g,1,NA,NA,NA,4,6,54,g,1,0.5856880999635905,sub-71383052
NA,NA,NA,NA,NA,NA,NA,blau,blue,b,1,NA,NA,NA,4,7,55,b,1,0.5459181999904104,sub-71383052
NA,NA,NA,NA,NA,NA,NA,rot,yellow,g,0,NA,NA,NA,4,8,56,g,1,0.6035165999783203,sub-71383052
NA,NA,NA,NA,NA,NA,NA,rot,red,r,1,NA,NA,NA,4,9,57,r,1,0.5719390999875031,sub-71383052
NA,NA,NA,NA,NA,NA,NA,gelb,yellow,g,1,NA,NA,NA,4,10,58,g,1,0.6472748999949545,sub-71383052
NA,NA,NA,NA,NA,NA,NA,rot,red,r,1,NA,NA,NA,4,11,59,r,1,0.5798097000224516,sub-71383052
NA,NA,NA,NA,NA,NA,NA,blau,red,r,0,NA,NA,NA,5,0,60,r,1,0.6262418000260368,sub-71383052
NA,NA,NA,NA,NA,NA,NA,blau,blue,b,1,NA,NA,NA,5,1,61,b,1,0.4854394000140019,sub-71383052
NA,NA,NA,NA,NA,NA,NA,rot,red,r,1,NA,NA,NA,5,2,62,r,1,0.48937099997419864,sub-71383052
NA,NA,NA,NA,NA,NA,NA,gelb,yellow,g,1,NA,NA,NA,5,3,63,g,1,0.5715571000473574,sub-71383052
NA,NA,NA,NA,NA,NA,NA,blau,blue,b,1,NA,NA,NA,5,4,64,b,1,0.5720628999988548,sub-71383052
NA,NA,NA,NA,NA,NA,NA,blau,yellow,g,0,NA,NA,NA,5,5,65,g,1,2.5192428000154905,sub-71383052
NA,NA,NA,NA,NA,NA,NA,gelb,red,r,0,NA,NA,NA,5,6,66,r,1,0.9622332000290044,sub-71383052
NA,NA,NA,NA,NA,NA,NA,rot,red,r,1,NA,NA,NA,5,7,67,r,1,0.45951529999729246,sub-71383052
NA,NA,NA,NA,NA,NA,NA,rot,yellow,g,0,NA,NA,NA,5,8,68,g,1,0.734875500027556,sub-71383052
NA,NA,NA,NA,NA,NA,NA,gelb,blue,b,0,NA,NA,NA,5,9,69,b,1,1.1481705000041984,sub-71383052
NA,NA,NA,NA,NA,NA,NA,gelb,yellow,g,1,NA,NA,NA,5,10,70,g,1,0.7149038999923505,sub-71383052
NA,NA,NA,NA,NA,NA,NA,rot,blue,b,0,NA,NA,NA,5,11,71,b,1,0.8572247999836691,sub-71383052
NA,NA,NA,NA,NA,NA,NA,gelb,yellow,g,1,NA,NA,NA,6,0,72,g,1,0.5303973000263795,sub-71383052
NA,NA,NA,NA,NA,NA,NA,rot,yellow,g,0,NA,NA,NA,6,1,73,g,1,0.6527470999862999,sub-71383052
NA,NA,NA,NA,NA,NA,NA,rot,blue,b,0,NA,NA,NA,6,2,74,b,1,0.4944691000273451,sub-71383052
NA,NA,NA,NA,NA,NA,NA,blau,yellow,g,0,NA,NA,NA,6,3,75,g,1,0.3566265000263229,sub-71383052
NA,NA,NA,NA,NA,NA,NA,blau,blue,b,1,NA,NA,NA,6,4,76,b,1,0.5040015999693424,sub-71383052
NA,NA,NA,NA,NA,NA,NA,blau,red,r,0,NA,NA,NA,6,5,77,r,1,0.34733829996548593,sub-71383052
NA,NA,NA,NA,NA,NA,NA,rot,red,r,1,NA,NA,NA,6,6,78,r,1,0.45575130003271624,sub-71383052
NA,NA,NA,NA,NA,NA,NA,gelb,yellow,g,1,NA,NA,NA,6,7,79,g,1,0.8535158000304364,sub-71383052
NA,NA,NA,NA,NA,NA,NA,gelb,blue,b,0,NA,NA,NA,6,8,80,b,1,0.33017069997731596,sub-71383052
NA,NA,NA,NA,NA,NA,NA,rot,red,r,1,NA,NA,NA,6,9,81,r,1,0.5366645000176504,sub-71383052
NA,NA,NA,NA,NA,NA,NA,blau,blue,b,1,NA,NA,NA,6,10,82,b,1,0.4200927999918349,sub-71383052
NA,NA,NA,NA,NA,NA,NA,gelb,red,r,0,NA,NA,NA,6,11,83,r,1,0.5383321999688633,sub-71383052
NA,NA,NA,NA,NA,NA,NA,rot,red,r,1,NA,NA,NA,7,0,84,r,1,0.5265443000243977,sub-71383052
NA,NA,NA,NA,NA,NA,NA,rot,yellow,g,0,NA,NA,NA,7,1,85,g,1,0.33518809999804944,sub-71383052
NA,NA,NA,NA,NA,NA,NA,blau,yellow,g,0,NA,NA,NA,7,2,86,g,1,0.41360540001187474,sub-71383052
NA,NA,NA,NA,NA,NA,NA,blau,blue,b,1,NA,NA,NA,7,3,87,b,1,0.5185180000262335,sub-71383052
NA,NA,NA,NA,NA,NA,NA,gelb,yellow,g,1,NA,NA,NA,7,4,88,g,1,0.3691796999773942,sub-71383052
NA,NA,NA,NA,NA,NA,NA,gelb,yellow,g,1,NA,NA,NA,7,5,89,g,1,0.45379609998781234,sub-71383052
NA,NA,NA,NA,NA,NA,NA,rot,red,r,1,NA,NA,NA,7,6,90,r,1,0.5352506999624893,sub-71383052
NA,NA,NA,NA,NA,NA,NA,blau,blue,b,1,NA,NA,NA,7,7,91,b,1,0.39063880004687235,sub-71383052
NA,NA,NA,NA,NA,NA,NA,gelb,blue,b,0,NA,NA,NA,7,8,92,b,1,0.5407689000130631,sub-71383052
NA,NA,NA,NA,NA,NA,NA,rot,blue,b,0,NA,NA,NA,7,9,93,b,1,0.4266267999773845,sub-71383052
NA,NA,NA,NA,NA,NA,NA,blau,red,r,0,NA,NA,NA,7,10,94,r,1,0.5741470999782905,sub-71383052
NA,NA,NA,NA,NA,NA,NA,gelb,red,r,0,NA,NA,NA,7,11,95,r,1,0.530988399987109,sub-71383052
NA,NA,NA,NA,NA,NA,NA,blau,red,r,0,NA,NA,NA,8,0,96,r,1,0.3805512999533675,sub-71383052
NA,NA,NA,NA,NA,NA,NA,blau,blue,b,1,NA,NA,NA,8,1,97,b,1,0.5257414000225253,sub-71383052
NA,NA,NA,NA,NA,NA,NA,gelb,red,r,0,NA,NA,NA,8,2,98,r,1,0.3894072999828495,sub-71383052
NA,NA,NA,NA,NA,NA,NA,rot,blue,b,0,NA,NA,NA,8,3,99,b,1,0.45138179999776185,sub-71383052
NA,NA,NA,NA,NA,NA,NA,rot,red,r,1,NA,NA,NA,8,4,100,r,1,0.42866900004446507,sub-71383052
NA,NA,NA,NA,NA,NA,NA,gelb,yellow,g,1,NA,NA,NA,8,5,101,g,1,0.4238447999814525,sub-71383052
NA,NA,NA,NA,NA,NA,NA,gelb,blue,b,0,NA,NA,NA,8,6,102,b,1,0.6985828999895602,sub-71383052
NA,NA,NA,NA,NA,NA,NA,rot,red,r,1,NA,NA,NA,8,7,103,r,1,0.43620260001625866,sub-71383052
NA,NA,NA,NA,NA,NA,NA,gelb,yellow,g,1,NA,NA,NA,8,8,104,g,1,0.5232602000469342,sub-71383052
NA,NA,NA,NA,NA,NA,NA,rot,yellow,g,0,NA,NA,NA,8,9,105,g,1,1.0313159000361338,sub-71383052
NA,NA,NA,NA,NA,NA,NA,blau,yellow,g,0,NA,NA,NA,8,10,106,g,1,0.4097645999863744,sub-71383052
NA,NA,NA,NA,NA,NA,NA,blau,blue,b,1,NA,NA,NA,8,11,107,b,1,0.44989029999123886,sub-71383052
NA,NA,NA,NA,NA,NA,NA,rot,yellow,g,0,NA,NA,NA,9,0,108,g,1,0.5107628999976441,sub-71383052
NA,NA,NA,NA,NA,NA,NA,rot,red,r,1,NA,NA,NA,9,1,109,r,1,0.34836990002077073,sub-71383052
NA,NA,NA,NA,NA,NA,NA,blau,blue,b,1,NA,NA,NA,9,2,110,b,1,0.4855524000013247,sub-71383052
NA,NA,NA,NA,NA,NA,NA,blau,blue,b,1,NA,NA,NA,9,3,111,b,1,0.5295645000296645,sub-71383052
NA,NA,NA,NA,NA,NA,NA,gelb,yellow,g,1,NA,NA,NA,9,4,112,g,1,0.45524429995566607,sub-71383052
NA,NA,NA,NA,NA,NA,NA,blau,red,r,0,NA,NA,NA,9,5,113,r,1,0.32654829998500645,sub-71383052
NA,NA,NA,NA,NA,NA,NA,gelb,red,r,0,NA,NA,NA,9,6,114,r,1,0.5422346999985166,sub-71383052
NA,NA,NA,NA,NA,NA,NA,gelb,yellow,g,1,NA,NA,NA,9,7,115,g,1,0.5192106000031345,sub-71383052
NA,NA,NA,NA,NA,NA,NA,rot,blue,b,0,NA,NA,NA,9,8,116,b,1,0.5444686000118963,sub-71383052
NA,NA,NA,NA,NA,NA,NA,rot,red,r,1,NA,NA,NA,9,9,117,r,1,0.4599375000107102,sub-71383052
NA,NA,NA,NA,NA,NA,NA,blau,yellow,g,0,NA,NA,NA,9,10,118,g,1,0.30006609996780753,sub-71383052
NA,NA,NA,NA,NA,NA,NA,gelb,blue,b,0,NA,NA,NA,9,11,119,r,0,0.4657588999834843,sub-71383052
NA,NA,NA,NA,NA,NA,NA,NA,NA,NA,NA,NA,NA,NA,NA,NA,NA,NA,NA,NA,sub-71383052
