wordCTK,colorCTK,corrAnsCTK,congruentCTK,wordPractice,colorPractice,congruentPractice,word,color,corrAns,congruent,trials_practice.thisRepN,trials_practice.thisTrialN,trials_practice.thisN,trials_test.thisRepN,trials_test.thisTrialN,trials_test.thisN,keyResp_test_run.keys,keyResp_test_run.corr,keyResp_test_run.rt,participant
NA,NA,NA,NA,NA,NA,NA,NA,NA,NA,NA,NA,NA,NA,NA,NA,NA,NA,NA,NA,sub-7966313
NA,NA,NA,NA,NA,NA,NA,NA,NA,NA,NA,NA,NA,NA,NA,NA,NA,NA,NA,NA,sub-7966313
test,red,r,1,NA,NA,NA,NA,NA,NA,NA,NA,NA,NA,NA,NA,NA,NA,NA,NA,sub-7966313
test,yellow,g,1,NA,NA,NA,NA,NA,NA,NA,NA,NA,NA,NA,NA,NA,NA,NA,NA,sub-7966313
test,blue,b,1,NA,NA,NA,NA,NA,NA,NA,NA,NA,NA,NA,NA,NA,NA,NA,NA,sub-7966313
test,blue,b,1,NA,NA,NA,NA,NA,NA,NA,NA,NA,NA,NA,NA,NA,NA,NA,NA,sub-7966313
test,red,r,1,NA,NA,NA,NA,NA,NA,NA,NA,NA,NA,NA,NA,NA,NA,NA,NA,sub-7966313
test,yellow,g,1,NA,NA,NA,NA,NA,NA,NA,NA,NA,NA,NA,NA,NA,NA,NA,NA,sub-7966313
test,yellow,g,1,NA,NA,NA,NA,NA,NA,NA,NA,NA,NA,NA,NA,NA,NA,NA,NA,sub-7966313
test,blue,b,1,NA,NA,NA,NA,NA,NA,NA,NA,NA,NA,NA,NA,NA,NA,NA,NA,sub-7966313
test,red,r,1,NA,NA,NA,NA,NA,NA,NA,NA,NA,NA,NA,NA,NA,NA,NA,NA,sub-7966313
test,red,r,1,NA,NA,NA,NA,NA,NA,NA,NA,NA,NA,NA,NA,NA,NA,NA,NA,sub-7966313
test,blue,b,1,NA,NA,NA,NA,NA,NA,NA,NA,NA,NA,NA,NA,NA,NA,NA,NA,sub-7966313
test,yellow,g,1,NA,NA,NA,NA,NA,NA,NA,NA,NA,NA,NA,NA,NA,NA,NA,NA,sub-7966313
NA,NA,NA,NA,NA,NA,NA,NA,NA,NA,NA,NA,NA,NA,NA,NA,NA,NA,NA,NA,sub-7966313
NA,NA,NA,NA,rot,red,1,NA,NA,NA,NA,0,0,0,NA,NA,NA,NA,NA,NA,sub-7966313
NA,NA,NA,NA,rot,blue,0,NA,NA,NA,NA,0,1,1,NA,NA,NA,NA,NA,NA,sub-7966313
NA,NA,NA,NA,blau,blue,1,NA,NA,NA,NA,0,2,2,NA,NA,NA,NA,NA,NA,sub-7966313
NA,NA,NA,NA,blau,yellow,0,NA,NA,NA,NA,0,3,3,NA,NA,NA,NA,NA,NA,sub-7966313
NA,NA,NA,NA,blau,blue,1,NA,NA,NA,NA,0,4,4,NA,NA,NA,NA,NA,NA,sub-7966313
NA,NA,NA,NA,rot,yellow,0,NA,NA,NA,NA,0,5,5,NA,NA,NA,NA,NA,NA,sub-7966313
NA,NA,NA,NA,gelb,red,0,NA,NA,NA,NA,0,6,6,NA,NA,NA,NA,NA,NA,sub-7966313
NA,NA,NA,NA,gelb,yellow,1,NA,NA,NA,NA,0,7,7,NA,NA,NA,NA,NA,NA,sub-7966313
NA,NA,NA,NA,blau,red,0,NA,NA,NA,NA,0,8,8,NA,NA,NA,NA,NA,NA,sub-7966313
NA,NA,NA,NA,gelb,yellow,1,NA,NA,NA,NA,0,9,9,NA,NA,NA,NA,NA,NA,sub-7966313
NA,NA,NA,NA,gelb,blue,0,NA,NA,NA,NA,0,10,10,NA,NA,NA,NA,NA,NA,sub-7966313
NA,NA,NA,NA,rot,red,1,NA,NA,NA,NA,0,11,11,NA,NA,NA,NA,NA,NA,sub-7966313
NA,NA,NA,NA,gelb,yellow,1,NA,NA,NA,NA,1,0,12,NA,NA,NA,NA,NA,NA,sub-7966313
NA,NA,NA,NA,rot,red,1,NA,NA,NA,NA,1,1,13,NA,NA,NA,NA,NA,NA,sub-7966313
NA,NA,NA,NA,gelb,blue,0,NA,NA,NA,NA,1,2,14,NA,NA,NA,NA,NA,NA,sub-7966313
NA,NA,NA,NA,rot,yellow,0,NA,NA,NA,NA,1,3,15,NA,NA,NA,NA,NA,NA,sub-7966313
NA,NA,NA,NA,gelb,yellow,1,NA,NA,NA,NA,1,4,16,NA,NA,NA,NA,NA,NA,sub-7966313
NA,NA,NA,NA,blau,yellow,0,NA,NA,NA,NA,1,5,17,NA,NA,NA,NA,NA,NA,sub-7966313
NA,NA,NA,NA,rot,blue,0,NA,NA,NA,NA,1,6,18,NA,NA,NA,NA,NA,NA,sub-7966313
NA,NA,NA,NA,blau,red,0,NA,NA,NA,NA,1,7,19,NA,NA,NA,NA,NA,NA,sub-7966313
NA,NA,NA,NA,gelb,red,0,NA,NA,NA,NA,1,8,20,NA,NA,NA,NA,NA,NA,sub-7966313
NA,NA,NA,NA,rot,red,1,NA,NA,NA,NA,1,9,21,NA,NA,NA,NA,NA,NA,sub-7966313
NA,NA,NA,NA,blau,blue,1,NA,NA,NA,NA,1,10,22,NA,NA,NA,NA,NA,NA,sub-7966313
NA,NA,NA,NA,blau,blue,1,NA,NA,NA,NA,1,11,23,NA,NA,NA,NA,NA,NA,sub-7966313
NA,NA,NA,NA,NA,NA,NA,NA,NA,NA,NA,NA,NA,NA,NA,NA,NA,NA,NA,NA,sub-7966313
NA,NA,NA,NA,NA,NA,NA,blau,blue,b,1,NA,NA,NA,0,0,0,b,1,0.800220699980855,sub-7966313
NA,NA,NA,NA,NA,NA,NA,gelb,yellow,g,1,NA,NA,NA,0,1,1,g,1,0.6267608000198379,sub-7966313
NA,NA,NA,NA,NA,NA,NA,blau,blue,b,1,NA,NA,NA,0,2,2,b,1,0.8030205999966711,sub-7966313
NA,NA,NA,NA,NA,NA,NA,rot,yellow,g,0,NA,NA,NA,0,3,3,g,1,0.9726412000018172,sub-7966313
NA,NA,NA,NA,NA,NA,NA,gelb,blue,b,0,NA,NA,NA,0,4,4,b,1,1.1283862999989651,sub-7966313
NA,NA,NA,NA,NA,NA,NA,rot,red,r,1,NA,NA,NA,0,5,5,r,1,0.6266530000139028,sub-7966313
NA,NA,NA,NA,NA,NA,NA,gelb,yellow,g,1,NA,NA,NA,0,6,6,g,1,0.8798061999841593,sub-7966313
NA,NA,NA,NA,NA,NA,NA,gelb,red,r,0,NA,NA,NA,0,7,7,r,1,0.8611937999958172,sub-7966313
NA,NA,NA,NA,NA,NA,NA,rot,blue,b,0,NA,NA,NA,0,8,8,b,1,0.7524296999908984,sub-7966313
NA,NA,NA,NA,NA,NA,NA,rot,red,r,1,NA,NA,NA,0,9,9,r,1,0.6994670999702066,sub-7966313
NA,NA,NA,NA,NA,NA,NA,blau,red,r,0,NA,NA,NA,0,10,10,r,1,1.595824099960737,sub-7966313
NA,NA,NA,NA,NA,NA,NA,blau,yellow,g,0,NA,NA,NA,0,11,11,g,1,0.9395839999779128,sub-7966313
NA,NA,NA,NA,NA,NA,NA,blau,blue,b,1,NA,NA,NA,1,0,12,b,1,0.7271431999979541,sub-7966313
NA,NA,NA,NA,NA,NA,NA,blau,yellow,g,0,NA,NA,NA,1,1,13,g,1,0.8297568999696523,sub-7966313
NA,NA,NA,NA,NA,NA,NA,rot,blue,b,0,NA,NA,NA,1,2,14,b,1,1.0835833000019193,sub-7966313
NA,NA,NA,NA,NA,NA,NA,rot,red,r,1,NA,NA,NA,1,3,15,r,1,0.6300357999862172,sub-7966313
NA,NA,NA,NA,NA,NA,NA,rot,yellow,g,0,NA,NA,NA,1,4,16,g,1,0.8015216999920085,sub-7966313
NA,NA,NA,NA,NA,NA,NA,gelb,red,r,0,NA,NA,NA,1,5,17,r,1,0.9702747999690472,sub-7966313
NA,NA,NA,NA,NA,NA,NA,rot,red,r,1,NA,NA,NA,1,6,18,r,1,0.7989921999978833,sub-7966313
NA,NA,NA,NA,NA,NA,NA,gelb,yellow,g,1,NA,NA,NA,1,7,19,g,1,1.0729907000204548,sub-7966313
NA,NA,NA,NA,NA,NA,NA,gelb,yellow,g,1,NA,NA,NA,1,8,20,g,1,0.920620599994436,sub-7966313
NA,NA,NA,NA,NA,NA,NA,blau,blue,b,1,NA,NA,NA,1,9,21,b,1,0.7307558999746107,sub-7966313
NA,NA,NA,NA,NA,NA,NA,blau,red,r,0,NA,NA,NA,1,10,22,r,1,2.032093800022267,sub-7966313
NA,NA,NA,NA,NA,NA,NA,gelb,blue,b,0,NA,NA,NA,1,11,23,g,0,0.948622500000056,sub-7966313
NA,NA,NA,NA,NA,NA,NA,rot,red,r,1,NA,NA,NA,2,0,24,r,1,0.8380595999769866,sub-7966313
NA,NA,NA,NA,NA,NA,NA,gelb,red,r,0,NA,NA,NA,2,1,25,r,1,0.938008599972818,sub-7966313
NA,NA,NA,NA,NA,NA,NA,gelb,blue,b,0,NA,NA,NA,2,2,26,b,1,0.8573231000336818,sub-7966313
NA,NA,NA,NA,NA,NA,NA,gelb,yellow,g,1,NA,NA,NA,2,3,27,g,1,1.1259919000440275,sub-7966313
NA,NA,NA,NA,NA,NA,NA,blau,blue,b,1,NA,NA,NA,2,4,28,b,1,0.9230706000234932,sub-7966313
NA,NA,NA,NA,NA,NA,NA,blau,yellow,g,0,NA,NA,NA,2,5,29,g,1,1.0285648999852128,sub-7966313
NA,NA,NA,NA,NA,NA,NA,gelb,yellow,g,1,NA,NA,NA,2,6,30,g,1,1.1212569999624975,sub-7966313
NA,NA,NA,NA,NA,NA,NA,blau,blue,b,1,NA,NA,NA,2,7,31,b,1,2.281234599999152,sub-7966313
NA,NA,NA,NA,NA,NA,NA,blau,red,r,0,NA,NA,NA,2,8,32,r,1,0.7749501999933273,sub-7966313
NA,NA,NA,NA,NA,NA,NA,rot,blue,b,0,NA,NA,NA,2,9,33,b,1,0.9626402000430972,sub-7966313
NA,NA,NA,NA,NA,NA,NA,rot,red,r,1,NA,NA,NA,2,10,34,r,1,0.6721028000465594,sub-7966313
NA,NA,NA,NA,NA,NA,NA,rot,yellow,g,0,NA,NA,NA,2,11,35,g,1,0.938245100027416,sub-7966313
NA,NA,NA,NA,NA,NA,NA,rot,red,r,1,NA,NA,NA,3,0,36,r,1,0.7084131999872625,sub-7966313
NA,NA,NA,NA,NA,NA,NA,gelb,yellow,g,1,NA,NA,NA,3,1,37,g,1,1.023898399958853,sub-7966313
NA,NA,NA,NA,NA,NA,NA,gelb,red,r,0,NA,NA,NA,3,2,38,r,1,2.2728317999863066,sub-7966313
NA,NA,NA,NA,NA,NA,NA,rot,blue,b,0,NA,NA,NA,3,3,39,b,1,0.7876980999717489,sub-7966313
NA,NA,NA,NA,NA,NA,NA,blau,blue,b,1,NA,NA,NA,3,4,40,b,1,0.7464732999796979,sub-7966313
NA,NA,NA,NA,NA,NA,NA,rot,red,r,1,NA,NA,NA,3,5,41,r,1,1.0284341999795288,sub-7966313
NA,NA,NA,NA,NA,NA,NA,rot,yellow,g,0,NA,NA,NA,3,6,42,g,1,0.9682186000281944,sub-7966313
NA,NA,NA,NA,NA,NA,NA,blau,red,r,0,NA,NA,NA,3,7,43,r,1,2.1041937000118196,sub-7966313
NA,NA,NA,NA,NA,NA,NA,gelb,blue,b,0,NA,NA,NA,3,8,44,b,1,1.599152699986007,sub-7966313
NA,NA,NA,NA,NA,NA,NA,gelb,yellow,g,1,NA,NA,NA,3,9,45,g,1,0.6662301999749616,sub-7966313
NA,NA,NA,NA,NA,NA,NA,blau,blue,b,1,NA,NA,NA,3,10,46,b,1,1.2537542999489233,sub-7966313
NA,NA,NA,NA,NA,NA,NA,blau,yellow,g,0,NA,NA,NA,3,11,47,g,1,0.937338199990336,sub-7966313
NA,NA,NA,NA,NA,NA,NA,rot,blue,b,0,NA,NA,NA,4,0,48,b,1,1.2654621999827214,sub-7966313
NA,NA,NA,NA,NA,NA,NA,rot,red,r,1,NA,NA,NA,4,1,49,r,1,1.0618040999979712,sub-7966313
NA,NA,NA,NA,NA,NA,NA,gelb,yellow,g,1,NA,NA,NA,4,2,50,g,1,0.7924186000018381,sub-7966313
NA,NA,NA,NA,NA,NA,NA,blau,red,r,0,NA,NA,NA,4,3,51,r,1,1.175942900008522,sub-7966313
NA,NA,NA,NA,NA,NA,NA,rot,red,r,1,NA,NA,NA,4,4,52,r,1,0.7619681999785826,sub-7966313
NA,NA,NA,NA,NA,NA,NA,blau,yellow,g,0,NA,NA,NA,4,5,53,g,1,1.1884002999868244,sub-7966313
NA,NA,NA,NA,NA,NA,NA,rot,yellow,g,0,NA,NA,NA,4,6,54,g,1,1.1769078999641351,sub-7966313
NA,NA,NA,NA,NA,NA,NA,gelb,yellow,g,1,NA,NA,NA,4,7,55,g,1,0.7704596999683417,sub-7966313
NA,NA,NA,NA,NA,NA,NA,blau,blue,b,1,NA,NA,NA,4,8,56,b,1,0.8027175000170246,sub-7966313
NA,NA,NA,NA,NA,NA,NA,gelb,blue,b,0,NA,NA,NA,4,9,57,b,1,0.9724182999925688,sub-7966313
NA,NA,NA,NA,NA,NA,NA,gelb,red,r,0,NA,NA,NA,4,10,58,r,1,1.1951891999924555,sub-7966313
NA,NA,NA,NA,NA,NA,NA,blau,blue,b,1,NA,NA,NA,4,11,59,b,1,0.8579394000116736,sub-7966313
NA,NA,NA,NA,NA,NA,NA,blau,red,r,0,NA,NA,NA,5,0,60,r,1,1.1005725000286477,sub-7966313
NA,NA,NA,NA,NA,NA,NA,blau,blue,b,1,NA,NA,NA,5,1,61,b,1,0.5218856999999844,sub-7966313
NA,NA,NA,NA,NA,NA,NA,rot,blue,b,0,NA,NA,NA,5,2,62,b,1,0.9817796000279486,sub-7966313
NA,NA,NA,NA,NA,NA,NA,gelb,red,r,0,NA,NA,NA,5,3,63,r,1,1.450959599984344,sub-7966313
NA,NA,NA,NA,NA,NA,NA,rot,yellow,g,0,NA,NA,NA,5,4,64,g,1,1.0000184000236914,sub-7966313
NA,NA,NA,NA,NA,NA,NA,blau,blue,b,1,NA,NA,NA,5,5,65,b,1,0.8850584999890998,sub-7966313
NA,NA,NA,NA,NA,NA,NA,gelb,blue,b,0,NA,NA,NA,5,6,66,b,1,0.9271784999873488,sub-7966313
NA,NA,NA,NA,NA,NA,NA,rot,red,r,1,NA,NA,NA,5,7,67,r,1,1.2400410000118427,sub-7966313
NA,NA,NA,NA,NA,NA,NA,gelb,yellow,g,1,NA,NA,NA,5,8,68,g,1,1.1371050999732688,sub-7966313
NA,NA,NA,NA,NA,NA,NA,gelb,yellow,g,1,NA,NA,NA,5,9,69,g,1,0.6721513000084087,sub-7966313
NA,NA,NA,NA,NA,NA,NA,blau,yellow,g,0,NA,NA,NA,5,10,70,g,1,1.3323813999886625,sub-7966313
NA,NA,NA,NA,NA,NA,NA,rot,red,r,1,NA,NA,NA,5,11,71,r,1,0.7698859999654815,sub-7966313
NA,NA,NA,NA,NA,NA,NA,gelb,blue,b,0,NA,NA,NA,6,0,72,b,1,1.1603712000069208,sub-7966313
NA,NA,NA,NA,NA,NA,NA,gelb,yellow,g,1,NA,NA,NA,6,1,73,g,1,1.0345574999810196,sub-7966313
NA,NA,NA,NA,NA,NA,NA,rot,yellow,g,0,NA,NA,NA,6,2,74,g,1,1.0796248000115156,sub-7966313
NA,NA,NA,NA,NA,NA,NA,blau,yellow,g,0,NA,NA,NA,6,3,75,g,1,0.8563099000020884,sub-7966313
NA,NA,NA,NA,NA,NA,NA,gelb,yellow,g,1,NA,NA,NA,6,4,76,g,1,0.854979399999138,sub-7966313
NA,NA,NA,NA,NA,NA,NA,gelb,red,r,0,NA,NA,NA,6,5,77,r,1,1.5661546000046656,sub-7966313
NA,NA,NA,NA,NA,NA,NA,rot,blue,b,0,NA,NA,NA,6,6,78,b,1,0.6219069000217132,sub-7966313
NA,NA,NA,NA,NA,NA,NA,blau,blue,b,1,NA,NA,NA,6,7,79,b,1,1.179925100004766,sub-7966313
NA,NA,NA,NA,NA,NA,NA,blau,red,r,0,NA,NA,NA,6,8,80,r,1,1.3567557000205852,sub-7966313
NA,NA,NA,NA,NA,NA,NA,rot,red,r,1,NA,NA,NA,6,9,81,r,1,0.9386311999987812,sub-7966313
NA,NA,NA,NA,NA,NA,NA,rot,red,r,1,NA,NA,NA,6,10,82,r,1,0.5082365000271238,sub-7966313
NA,NA,NA,NA,NA,NA,NA,blau,blue,b,1,NA,NA,NA,6,11,83,b,1,1.5765626999782398,sub-7966313
NA,NA,NA,NA,NA,NA,NA,gelb,yellow,g,1,NA,NA,NA,7,0,84,g,1,0.9171874999883584,sub-7966313
NA,NA,NA,NA,NA,NA,NA,gelb,yellow,g,1,NA,NA,NA,7,1,85,g,1,0.6818323000334203,sub-7966313
NA,NA,NA,NA,NA,NA,NA,gelb,red,r,0,NA,NA,NA,7,2,86,r,1,0.9033533000038004,sub-7966313
NA,NA,NA,NA,NA,NA,NA,blau,yellow,g,0,NA,NA,NA,7,3,87,g,1,1.1654566999641247,sub-7966313
NA,NA,NA,NA,NA,NA,NA,gelb,blue,b,0,NA,NA,NA,7,4,88,b,1,0.7763533999677747,sub-7966313
NA,NA,NA,NA,NA,NA,NA,rot,red,r,1,NA,NA,NA,7,5,89,r,1,1.1590680999797769,sub-7966313
NA,NA,NA,NA,NA,NA,NA,rot,yellow,g,0,NA,NA,NA,7,6,90,g,1,0.9037318000337108,sub-7966313
NA,NA,NA,NA,NA,NA,NA,rot,blue,b,0,NA,NA,NA,7,7,91,b,1,0.8822518000379205,sub-7966313
NA,NA,NA,NA,NA,NA,NA,blau,red,r,0,NA,NA,NA,7,8,92,r,1,0.8825400999630801,sub-7966313
NA,NA,NA,NA,NA,NA,NA,blau,blue,b,1,NA,NA,NA,7,9,93,b,1,0.7910370000172406,sub-7966313
NA,NA,NA,NA,NA,NA,NA,rot,red,r,1,NA,NA,NA,7,10,94,r,1,1.4112217999645509,sub-7966313
NA,NA,NA,NA,NA,NA,NA,blau,blue,b,1,NA,NA,NA,7,11,95,b,1,1.0313487999956124,sub-7966313
NA,NA,NA,NA,NA,NA,NA,rot,blue,b,0,NA,NA,NA,8,0,96,b,1,0.5953991000424139,sub-7966313
NA,NA,NA,NA,NA,NA,NA,rot,red,r,1,NA,NA,NA,8,1,97,r,1,0.7939970000297762,sub-7966313
NA,NA,NA,NA,NA,NA,NA,gelb,blue,b,0,NA,NA,NA,8,2,98,b,1,1.870279999973718,sub-7966313
NA,NA,NA,NA,NA,NA,NA,gelb,red,r,0,NA,NA,NA,8,3,99,r,1,0.9033415999729186,sub-7966313
NA,NA,NA,NA,NA,NA,NA,blau,yellow,g,0,NA,NA,NA,8,4,100,g,1,1.3531946999719366,sub-7966313
NA,NA,NA,NA,NA,NA,NA,blau,red,r,0,NA,NA,NA,8,5,101,r,1,1.5344945999677293,sub-7966313
NA,NA,NA,NA,NA,NA,NA,rot,yellow,g,0,NA,NA,NA,8,6,102,g,1,1.1236456999904476,sub-7966313
NA,NA,NA,NA,NA,NA,NA,gelb,yellow,g,1,NA,NA,NA,8,7,103,g,1,0.7144061999861151,sub-7966313
NA,NA,NA,NA,NA,NA,NA,blau,blue,b,1,NA,NA,NA,8,8,104,b,1,0.9554448999697344,sub-7966313
NA,NA,NA,NA,NA,NA,NA,rot,red,r,1,NA,NA,NA,8,9,105,r,1,1.4063612000318244,sub-7966313
NA,NA,NA,NA,NA,NA,NA,blau,blue,b,1,NA,NA,NA,8,10,106,b,1,1.096235400007572,sub-7966313
NA,NA,NA,NA,NA,NA,NA,gelb,yellow,g,1,NA,NA,NA,8,11,107,g,1,0.6944376999745145,sub-7966313
NA,NA,NA,NA,NA,NA,NA,rot,blue,b,0,NA,NA,NA,9,0,108,b,1,1.0904403000022285,sub-7966313
NA,NA,NA,NA,NA,NA,NA,blau,blue,b,1,NA,NA,NA,9,1,109,b,1,0.90900819998933,sub-7966313
NA,NA,NA,NA,NA,NA,NA,gelb,yellow,g,1,NA,NA,NA,9,2,110,g,1,1.006869699980598,sub-7966313
NA,NA,NA,NA,NA,NA,NA,blau,red,r,0,NA,NA,NA,9,3,111,r,1,1.807870099961292,sub-7966313
NA,NA,NA,NA,NA,NA,NA,gelb,blue,b,0,NA,NA,NA,9,4,112,b,1,1.1488047000020742,sub-7966313
NA,NA,NA,NA,NA,NA,NA,rot,yellow,g,0,NA,NA,NA,9,5,113,g,1,1.3848119999747723,sub-7966313
NA,NA,NA,NA,NA,NA,NA,blau,blue,b,1,NA,NA,NA,9,6,114,b,1,0.800902999995742,sub-7966313
NA,NA,NA,NA,NA,NA,NA,rot,red,r,1,NA,NA,NA,9,7,115,r,1,0.8256856999942102,sub-7966313
NA,NA,NA,NA,NA,NA,NA,gelb,yellow,g,1,NA,NA,NA,9,8,116,g,1,0.9973775999969804,sub-7966313
NA,NA,NA,NA,NA,NA,NA,blau,yellow,g,0,NA,NA,NA,9,9,117,g,1,1.620442399987951,sub-7966313
NA,NA,NA,NA,NA,NA,NA,gelb,red,r,0,NA,NA,NA,9,10,118,r,1,2.1407175999484025,sub-7966313
NA,NA,NA,NA,NA,NA,NA,rot,red,r,1,NA,NA,NA,9,11,119,r,1,1.539382399991155,sub-7966313
NA,NA,NA,NA,NA,NA,NA,NA,NA,NA,NA,NA,NA,NA,NA,NA,NA,NA,NA,NA,sub-7966313
