wordCTK,colorCTK,corrAnsCTK,congruentCTK,wordPractice,colorPractice,congruentPractice,word,color,corrAns,congruent,trials_practice.thisRepN,trials_practice.thisTrialN,trials_practice.thisN,trials_test.thisRepN,trials_test.thisTrialN,trials_test.thisN,keyResp_test_run.keys,keyResp_test_run.corr,keyResp_test_run.rt,participant
NA,NA,NA,NA,NA,NA,NA,NA,NA,NA,NA,NA,NA,NA,NA,NA,NA,NA,NA,NA,sub-42134578
NA,NA,NA,NA,NA,NA,NA,NA,NA,NA,NA,NA,NA,NA,NA,NA,NA,NA,NA,NA,sub-42134578
test,red,r,1,NA,NA,NA,NA,NA,NA,NA,NA,NA,NA,NA,NA,NA,NA,NA,NA,sub-42134578
test,yellow,g,1,NA,NA,NA,NA,NA,NA,NA,NA,NA,NA,NA,NA,NA,NA,NA,NA,sub-42134578
test,blue,b,1,NA,NA,NA,NA,NA,NA,NA,NA,NA,NA,NA,NA,NA,NA,NA,NA,sub-42134578
test,yellow,g,1,NA,NA,NA,NA,NA,NA,NA,NA,NA,NA,NA,NA,NA,NA,NA,NA,sub-42134578
test,red,r,1,NA,NA,NA,NA,NA,NA,NA,NA,NA,NA,NA,NA,NA,NA,NA,NA,sub-42134578
test,blue,b,1,NA,NA,NA,NA,NA,NA,NA,NA,NA,NA,NA,NA,NA,NA,NA,NA,sub-42134578
test,yellow,g,1,NA,NA,NA,NA,NA,NA,NA,NA,NA,NA,NA,NA,NA,NA,NA,NA,sub-42134578
test,blue,b,1,NA,NA,NA,NA,NA,NA,NA,NA,NA,NA,NA,NA,NA,NA,NA,NA,sub-42134578
test,red,r,1,NA,NA,NA,NA,NA,NA,NA,NA,NA,NA,NA,NA,NA,NA,NA,NA,sub-42134578
test,red,r,1,NA,NA,NA,NA,NA,NA,NA,NA,NA,NA,NA,NA,NA,NA,NA,NA,sub-42134578
test,blue,b,1,NA,NA,NA,NA,NA,NA,NA,NA,NA,NA,NA,NA,NA,NA,NA,NA,sub-42134578
test,yellow,g,1,NA,NA,NA,NA,NA,NA,NA,NA,NA,NA,NA,NA,NA,NA,NA,NA,sub-42134578
NA,NA,NA,NA,NA,NA,NA,NA,NA,NA,NA,NA,NA,NA,NA,NA,NA,NA,NA,NA,sub-42134578
NA,NA,NA,NA,gelb,yellow,1,NA,NA,NA,NA,0,0,0,NA,NA,NA,NA,NA,NA,sub-42134578
NA,NA,NA,NA,gelb,red,0,NA,NA,NA,NA,0,1,1,NA,NA,NA,NA,NA,NA,sub-42134578
NA,NA,NA,NA,gelb,yellow,1,NA,NA,NA,NA,0,2,2,NA,NA,NA,NA,NA,NA,sub-42134578
NA,NA,NA,NA,gelb,blue,0,NA,NA,NA,NA,0,3,3,NA,NA,NA,NA,NA,NA,sub-42134578
NA,NA,NA,NA,rot,red,1,NA,NA,NA,NA,0,4,4,NA,NA,NA,NA,NA,NA,sub-42134578
NA,NA,NA,NA,rot,blue,0,NA,NA,NA,NA,0,5,5,NA,NA,NA,NA,NA,NA,sub-42134578
NA,NA,NA,NA,blau,red,0,NA,NA,NA,NA,0,6,6,NA,NA,NA,NA,NA,NA,sub-42134578
NA,NA,NA,NA,blau,blue,1,NA,NA,NA,NA,0,7,7,NA,NA,NA,NA,NA,NA,sub-42134578
NA,NA,NA,NA,rot,red,1,NA,NA,NA,NA,0,8,8,NA,NA,NA,NA,NA,NA,sub-42134578
NA,NA,NA,NA,rot,yellow,0,NA,NA,NA,NA,0,9,9,NA,NA,NA,NA,NA,NA,sub-42134578
NA,NA,NA,NA,blau,blue,1,NA,NA,NA,NA,0,10,10,NA,NA,NA,NA,NA,NA,sub-42134578
NA,NA,NA,NA,blau,yellow,0,NA,NA,NA,NA,0,11,11,NA,NA,NA,NA,NA,NA,sub-42134578
NA,NA,NA,NA,gelb,blue,0,NA,NA,NA,NA,1,0,12,NA,NA,NA,NA,NA,NA,sub-42134578
NA,NA,NA,NA,blau,yellow,0,NA,NA,NA,NA,1,1,13,NA,NA,NA,NA,NA,NA,sub-42134578
NA,NA,NA,NA,gelb,yellow,1,NA,NA,NA,NA,1,2,14,NA,NA,NA,NA,NA,NA,sub-42134578
NA,NA,NA,NA,gelb,red,0,NA,NA,NA,NA,1,3,15,NA,NA,NA,NA,NA,NA,sub-42134578
NA,NA,NA,NA,blau,blue,1,NA,NA,NA,NA,1,4,16,NA,NA,NA,NA,NA,NA,sub-42134578
NA,NA,NA,NA,gelb,yellow,1,NA,NA,NA,NA,1,5,17,NA,NA,NA,NA,NA,NA,sub-42134578
NA,NA,NA,NA,rot,red,1,NA,NA,NA,NA,1,6,18,NA,NA,NA,NA,NA,NA,sub-42134578
NA,NA,NA,NA,rot,red,1,NA,NA,NA,NA,1,7,19,NA,NA,NA,NA,NA,NA,sub-42134578
NA,NA,NA,NA,rot,blue,0,NA,NA,NA,NA,1,8,20,NA,NA,NA,NA,NA,NA,sub-42134578
NA,NA,NA,NA,blau,red,0,NA,NA,NA,NA,1,9,21,NA,NA,NA,NA,NA,NA,sub-42134578
NA,NA,NA,NA,blau,blue,1,NA,NA,NA,NA,1,10,22,NA,NA,NA,NA,NA,NA,sub-42134578
NA,NA,NA,NA,rot,yellow,0,NA,NA,NA,NA,1,11,23,NA,NA,NA,NA,NA,NA,sub-42134578
NA,NA,NA,NA,NA,NA,NA,NA,NA,NA,NA,NA,NA,NA,NA,NA,NA,NA,NA,NA,sub-42134578
NA,NA,NA,NA,NA,NA,NA,blau,blue,b,1,NA,NA,NA,0,0,0,b,1,0.5518856799972127,sub-42134578
NA,NA,NA,NA,NA,NA,NA,gelb,red,r,0,NA,NA,NA,0,1,1,r,1,0.5583904609957244,sub-42134578
NA,NA,NA,NA,NA,NA,NA,blau,red,r,0,NA,NA,NA,0,2,2,r,1,0.4472192899993388,sub-42134578
NA,NA,NA,NA,NA,NA,NA,blau,blue,b,1,NA,NA,NA,0,3,3,b,1,0.4583847960020648,sub-42134578
NA,NA,NA,NA,NA,NA,NA,gelb,yellow,g,1,NA,NA,NA,0,4,4,g,1,0.5801537180013838,sub-42134578
NA,NA,NA,NA,NA,NA,NA,rot,blue,b,0,NA,NA,NA,0,5,5,b,1,0.9059068030037452,sub-42134578
NA,NA,NA,NA,NA,NA,NA,rot,red,r,1,NA,NA,NA,0,6,6,r,1,0.43522406699776184,sub-42134578
NA,NA,NA,NA,NA,NA,NA,gelb,blue,b,0,NA,NA,NA,0,7,7,b,1,0.6806113649945473,sub-42134578
NA,NA,NA,NA,NA,NA,NA,rot,red,r,1,NA,NA,NA,0,8,8,r,1,0.3913293470031931,sub-42134578
NA,NA,NA,NA,NA,NA,NA,rot,yellow,g,0,NA,NA,NA,0,9,9,g,1,0.6999227030028123,sub-42134578
NA,NA,NA,NA,NA,NA,NA,blau,yellow,g,0,NA,NA,NA,0,10,10,g,1,0.5769980980039691,sub-42134578
NA,NA,NA,NA,NA,NA,NA,gelb,yellow,g,1,NA,NA,NA,0,11,11,g,1,0.4740555249954923,sub-42134578
NA,NA,NA,NA,NA,NA,NA,blau,yellow,g,0,NA,NA,NA,1,0,12,g,1,0.46770499600097537,sub-42134578
NA,NA,NA,NA,NA,NA,NA,rot,yellow,g,0,NA,NA,NA,1,1,13,g,1,0.4518348009951296,sub-42134578
NA,NA,NA,NA,NA,NA,NA,blau,blue,b,1,NA,NA,NA,1,2,14,b,1,0.4538438879972091,sub-42134578
NA,NA,NA,NA,NA,NA,NA,gelb,blue,b,0,NA,NA,NA,1,3,15,b,1,0.5237864430018817,sub-42134578
NA,NA,NA,NA,NA,NA,NA,blau,blue,b,1,NA,NA,NA,1,4,16,b,1,0.40993892199912807,sub-42134578
NA,NA,NA,NA,NA,NA,NA,gelb,yellow,g,1,NA,NA,NA,1,5,17,r,0,0.4997032849933021,sub-42134578
NA,NA,NA,NA,NA,NA,NA,rot,red,r,1,NA,NA,NA,1,6,18,r,1,0.5839647960019647,sub-42134578
NA,NA,NA,NA,NA,NA,NA,blau,red,r,0,NA,NA,NA,1,7,19,r,1,0.4481855630001519,sub-42134578
NA,NA,NA,NA,NA,NA,NA,rot,blue,b,0,NA,NA,NA,1,8,20,b,1,0.8049076899987995,sub-42134578
NA,NA,NA,NA,NA,NA,NA,gelb,yellow,g,1,NA,NA,NA,1,9,21,g,1,0.5074748970000655,sub-42134578
NA,NA,NA,NA,NA,NA,NA,rot,red,r,1,NA,NA,NA,1,10,22,r,1,0.3579792929958785,sub-42134578
NA,NA,NA,NA,NA,NA,NA,gelb,red,r,0,NA,NA,NA,1,11,23,r,1,0.4929695749960956,sub-42134578
NA,NA,NA,NA,NA,NA,NA,gelb,yellow,g,1,NA,NA,NA,2,0,24,g,1,0.46098546300345333,sub-42134578
NA,NA,NA,NA,NA,NA,NA,gelb,yellow,g,1,NA,NA,NA,2,1,25,g,1,0.509407896999619,sub-42134578
NA,NA,NA,NA,NA,NA,NA,blau,blue,b,1,NA,NA,NA,2,2,26,b,1,0.5472592839942081,sub-42134578
NA,NA,NA,NA,NA,NA,NA,gelb,blue,b,0,NA,NA,NA,2,3,27,b,1,0.4084269990053144,sub-42134578
NA,NA,NA,NA,NA,NA,NA,rot,red,r,1,NA,NA,NA,2,4,28,r,1,1.2164520259975689,sub-42134578
NA,NA,NA,NA,NA,NA,NA,blau,red,r,0,NA,NA,NA,2,5,29,r,1,0.5506888150048326,sub-42134578
NA,NA,NA,NA,NA,NA,NA,blau,blue,b,1,NA,NA,NA,2,6,30,b,1,0.6158774020004785,sub-42134578
NA,NA,NA,NA,NA,NA,NA,gelb,red,r,0,NA,NA,NA,2,7,31,r,1,0.5571400600019842,sub-42134578
NA,NA,NA,NA,NA,NA,NA,rot,blue,b,0,NA,NA,NA,2,8,32,g,0,0.7322651199938264,sub-42134578
NA,NA,NA,NA,NA,NA,NA,rot,yellow,g,0,NA,NA,NA,2,9,33,g,1,0.6282007419940783,sub-42134578
NA,NA,NA,NA,NA,NA,NA,rot,red,r,1,NA,NA,NA,2,10,34,r,1,0.4807650509974337,sub-42134578
NA,NA,NA,NA,NA,NA,NA,blau,yellow,g,0,NA,NA,NA,2,11,35,g,1,0.7246339389967034,sub-42134578
NA,NA,NA,NA,NA,NA,NA,blau,blue,b,1,NA,NA,NA,3,0,36,b,1,0.7021196610003244,sub-42134578
NA,NA,NA,NA,NA,NA,NA,gelb,yellow,g,1,NA,NA,NA,3,1,37,g,1,0.575515070995607,sub-42134578
NA,NA,NA,NA,NA,NA,NA,rot,red,r,1,NA,NA,NA,3,2,38,r,1,0.49822776499786414,sub-42134578
NA,NA,NA,NA,NA,NA,NA,gelb,red,r,0,NA,NA,NA,3,3,39,r,1,0.7518814720024238,sub-42134578
NA,NA,NA,NA,NA,NA,NA,gelb,yellow,g,1,NA,NA,NA,3,4,40,g,1,0.5759291850044974,sub-42134578
NA,NA,NA,NA,NA,NA,NA,blau,red,r,0,NA,NA,NA,3,5,41,r,1,0.50907585999812,sub-42134578
NA,NA,NA,NA,NA,NA,NA,blau,yellow,g,0,NA,NA,NA,3,6,42,g,1,0.8100639300027979,sub-42134578
NA,NA,NA,NA,NA,NA,NA,gelb,blue,b,0,NA,NA,NA,3,7,43,b,1,0.9998922049999236,sub-42134578
NA,NA,NA,NA,NA,NA,NA,blau,blue,b,1,NA,NA,NA,3,8,44,b,1,0.39230996800324647,sub-42134578
NA,NA,NA,NA,NA,NA,NA,rot,yellow,g,0,NA,NA,NA,3,9,45,g,1,0.6952032019980834,sub-42134578
NA,NA,NA,NA,NA,NA,NA,rot,red,r,1,NA,NA,NA,3,10,46,r,1,0.3581945240002824,sub-42134578
NA,NA,NA,NA,NA,NA,NA,rot,blue,b,0,NA,NA,NA,3,11,47,b,1,0.7342211959985434,sub-42134578
NA,NA,NA,NA,NA,NA,NA,gelb,yellow,g,1,NA,NA,NA,4,0,48,g,1,0.44001325899444055,sub-42134578
NA,NA,NA,NA,NA,NA,NA,blau,blue,b,1,NA,NA,NA,4,1,49,b,1,0.4091608750022715,sub-42134578
NA,NA,NA,NA,NA,NA,NA,gelb,red,r,0,NA,NA,NA,4,2,50,r,1,0.6454502470005536,sub-42134578
NA,NA,NA,NA,NA,NA,NA,rot,blue,b,0,NA,NA,NA,4,3,51,b,1,0.9240403859948856,sub-42134578
NA,NA,NA,NA,NA,NA,NA,blau,red,r,0,NA,NA,NA,4,4,52,r,1,0.6991562080002041,sub-42134578
NA,NA,NA,NA,NA,NA,NA,gelb,yellow,g,1,NA,NA,NA,4,5,53,g,1,0.515352394002548,sub-42134578
NA,NA,NA,NA,NA,NA,NA,rot,red,r,1,NA,NA,NA,4,6,54,r,1,0.4563175749935908,sub-42134578
NA,NA,NA,NA,NA,NA,NA,gelb,blue,b,0,NA,NA,NA,4,7,55,b,1,0.6160890680039302,sub-42134578
NA,NA,NA,NA,NA,NA,NA,rot,yellow,g,0,NA,NA,NA,4,8,56,r,0,0.643143109002267,sub-42134578
NA,NA,NA,NA,NA,NA,NA,blau,blue,b,1,NA,NA,NA,4,9,57,b,1,0.6042198090071906,sub-42134578
NA,NA,NA,NA,NA,NA,NA,rot,red,r,1,NA,NA,NA,4,10,58,r,1,0.4916520539991325,sub-42134578
NA,NA,NA,NA,NA,NA,NA,blau,yellow,g,0,NA,NA,NA,4,11,59,g,1,0.5320149320032215,sub-42134578
NA,NA,NA,NA,NA,NA,NA,gelb,yellow,g,1,NA,NA,NA,5,0,60,g,1,1.040033022996795,sub-42134578
NA,NA,NA,NA,NA,NA,NA,rot,blue,b,0,NA,NA,NA,5,1,61,b,1,0.8738169479984208,sub-42134578
NA,NA,NA,NA,NA,NA,NA,blau,red,r,0,NA,NA,NA,5,2,62,r,1,0.4965548120017047,sub-42134578
NA,NA,NA,NA,NA,NA,NA,gelb,yellow,g,1,NA,NA,NA,5,3,63,g,1,0.5783172509982251,sub-42134578
NA,NA,NA,NA,NA,NA,NA,rot,red,r,1,NA,NA,NA,5,4,64,r,1,0.5392009420029353,sub-42134578
NA,NA,NA,NA,NA,NA,NA,blau,yellow,g,0,NA,NA,NA,5,5,65,g,1,0.8831972900006804,sub-42134578
NA,NA,NA,NA,NA,NA,NA,rot,red,r,1,NA,NA,NA,5,6,66,r,1,0.5169017169973813,sub-42134578
NA,NA,NA,NA,NA,NA,NA,blau,blue,b,1,NA,NA,NA,5,7,67,b,1,0.5220900850035832,sub-42134578
NA,NA,NA,NA,NA,NA,NA,rot,yellow,g,0,NA,NA,NA,5,8,68,g,1,0.6625051220034948,sub-42134578
NA,NA,NA,NA,NA,NA,NA,blau,blue,b,1,NA,NA,NA,5,9,69,b,1,0.6601112670032308,sub-42134578
NA,NA,NA,NA,NA,NA,NA,gelb,blue,b,0,NA,NA,NA,5,10,70,b,1,0.569096809005714,sub-42134578
NA,NA,NA,NA,NA,NA,NA,gelb,red,r,0,NA,NA,NA,5,11,71,r,1,1.0283558759983862,sub-42134578
NA,NA,NA,NA,NA,NA,NA,rot,yellow,g,0,NA,NA,NA,6,0,72,g,1,0.8011189660028322,sub-42134578
NA,NA,NA,NA,NA,NA,NA,blau,red,r,0,NA,NA,NA,6,1,73,r,1,0.5592352710009436,sub-42134578
NA,NA,NA,NA,NA,NA,NA,gelb,yellow,g,1,NA,NA,NA,6,2,74,g,1,0.5906657829982578,sub-42134578
NA,NA,NA,NA,NA,NA,NA,gelb,blue,b,0,NA,NA,NA,6,3,75,b,1,0.7928107139960048,sub-42134578
NA,NA,NA,NA,NA,NA,NA,rot,red,r,1,NA,NA,NA,6,4,76,r,1,0.573332747000677,sub-42134578
NA,NA,NA,NA,NA,NA,NA,rot,blue,b,0,NA,NA,NA,6,5,77,b,1,1.0161990859996877,sub-42134578
NA,NA,NA,NA,NA,NA,NA,rot,red,r,1,NA,NA,NA,6,6,78,r,1,0.6190799849937321,sub-42134578
NA,NA,NA,NA,NA,NA,NA,gelb,red,r,0,NA,NA,NA,6,7,79,r,1,0.38316271499934373,sub-42134578
NA,NA,NA,NA,NA,NA,NA,blau,blue,b,1,NA,NA,NA,6,8,80,g,0,0.5690755360046751,sub-42134578
NA,NA,NA,NA,NA,NA,NA,gelb,yellow,g,1,NA,NA,NA,6,9,81,r,0,0.5163133480018587,sub-42134578
NA,NA,NA,NA,NA,NA,NA,blau,blue,b,1,NA,NA,NA,6,10,82,b,1,0.4927120120046311,sub-42134578
NA,NA,NA,NA,NA,NA,NA,blau,yellow,g,0,NA,NA,NA,6,11,83,g,1,1.025929218994861,sub-42134578
NA,NA,NA,NA,NA,NA,NA,blau,blue,b,1,NA,NA,NA,7,0,84,b,1,0.5321733770033461,sub-42134578
NA,NA,NA,NA,NA,NA,NA,gelb,red,r,0,NA,NA,NA,7,1,85,r,1,0.49873405199468834,sub-42134578
NA,NA,NA,NA,NA,NA,NA,gelb,yellow,g,1,NA,NA,NA,7,2,86,g,1,0.5374204990002909,sub-42134578
NA,NA,NA,NA,NA,NA,NA,rot,blue,b,0,NA,NA,NA,7,3,87,b,1,0.7234860610042233,sub-42134578
NA,NA,NA,NA,NA,NA,NA,gelb,blue,b,0,NA,NA,NA,7,4,88,b,1,0.5796418210011325,sub-42134578
NA,NA,NA,NA,NA,NA,NA,rot,red,r,1,NA,NA,NA,7,5,89,r,1,0.4586594719949062,sub-42134578
NA,NA,NA,NA,NA,NA,NA,blau,blue,b,1,NA,NA,NA,7,6,90,b,1,0.4745448089961428,sub-42134578
NA,NA,NA,NA,NA,NA,NA,blau,yellow,g,0,NA,NA,NA,7,7,91,g,1,0.6477035360003356,sub-42134578
NA,NA,NA,NA,NA,NA,NA,rot,yellow,g,0,NA,NA,NA,7,8,92,r,0,0.5282143730000826,sub-42134578
NA,NA,NA,NA,NA,NA,NA,blau,red,r,0,NA,NA,NA,7,9,93,g,0,0.5167865740004345,sub-42134578
NA,NA,NA,NA,NA,NA,NA,gelb,yellow,g,1,NA,NA,NA,7,10,94,g,1,0.8916956470056903,sub-42134578
NA,NA,NA,NA,NA,NA,NA,rot,red,r,1,NA,NA,NA,7,11,95,r,1,0.5299770210040151,sub-42134578
NA,NA,NA,NA,NA,NA,NA,rot,blue,b,0,NA,NA,NA,8,0,96,b,1,0.6786978510062909,sub-42134578
NA,NA,NA,NA,NA,NA,NA,gelb,yellow,g,1,NA,NA,NA,8,1,97,g,1,0.9647605050049606,sub-42134578
NA,NA,NA,NA,NA,NA,NA,rot,red,r,1,NA,NA,NA,8,2,98,r,1,0.4920711489976384,sub-42134578
NA,NA,NA,NA,NA,NA,NA,blau,red,r,0,NA,NA,NA,8,3,99,r,1,0.7932518879970303,sub-42134578
NA,NA,NA,NA,NA,NA,NA,gelb,blue,b,0,NA,NA,NA,8,4,100,b,1,0.5944849389998126,sub-42134578
NA,NA,NA,NA,NA,NA,NA,rot,yellow,g,0,NA,NA,NA,8,5,101,g,1,0.7021816549968207,sub-42134578
NA,NA,NA,NA,NA,NA,NA,gelb,yellow,g,1,NA,NA,NA,8,6,102,g,1,0.7174836800040794,sub-42134578
NA,NA,NA,NA,NA,NA,NA,blau,blue,b,1,NA,NA,NA,8,7,103,b,1,0.8873176370034344,sub-42134578
NA,NA,NA,NA,NA,NA,NA,gelb,red,r,0,NA,NA,NA,8,8,104,r,1,0.5181960339978104,sub-42134578
NA,NA,NA,NA,NA,NA,NA,blau,blue,b,1,NA,NA,NA,8,9,105,b,1,0.6318209059973015,sub-42134578
NA,NA,NA,NA,NA,NA,NA,rot,red,r,1,NA,NA,NA,8,10,106,r,1,0.5008389519935008,sub-42134578
NA,NA,NA,NA,NA,NA,NA,blau,yellow,g,0,NA,NA,NA,8,11,107,g,1,0.6893589309984236,sub-42134578
NA,NA,NA,NA,NA,NA,NA,gelb,blue,b,0,NA,NA,NA,9,0,108,b,1,0.6339539769978728,sub-42134578
NA,NA,NA,NA,NA,NA,NA,rot,red,r,1,NA,NA,NA,9,1,109,r,1,0.5116211690037744,sub-42134578
NA,NA,NA,NA,NA,NA,NA,blau,red,r,0,NA,NA,NA,9,2,110,r,1,0.6001209499954712,sub-42134578
NA,NA,NA,NA,NA,NA,NA,gelb,red,r,0,NA,NA,NA,9,3,111,r,1,0.4847141540012672,sub-42134578
NA,NA,NA,NA,NA,NA,NA,rot,yellow,g,0,NA,NA,NA,9,4,112,g,1,0.7655964660007157,sub-42134578
NA,NA,NA,NA,NA,NA,NA,blau,blue,b,1,NA,NA,NA,9,5,113,b,1,0.5188696059994982,sub-42134578
NA,NA,NA,NA,NA,NA,NA,gelb,yellow,g,1,NA,NA,NA,9,6,114,g,1,0.5838776110031176,sub-42134578
NA,NA,NA,NA,NA,NA,NA,gelb,yellow,g,1,NA,NA,NA,9,7,115,b,0,0.4682508250043611,sub-42134578
NA,NA,NA,NA,NA,NA,NA,blau,blue,b,1,NA,NA,NA,9,8,116,b,1,0.5094479750041501,sub-42134578
NA,NA,NA,NA,NA,NA,NA,blau,yellow,g,0,NA,NA,NA,9,9,117,g,1,0.5352589799949783,sub-42134578
NA,NA,NA,NA,NA,NA,NA,rot,red,r,1,NA,NA,NA,9,10,118,r,1,0.5027980579980067,sub-42134578
NA,NA,NA,NA,NA,NA,NA,rot,blue,b,0,NA,NA,NA,9,11,119,b,1,0.7351045139948837,sub-42134578
NA,NA,NA,NA,NA,NA,NA,NA,NA,NA,NA,NA,NA,NA,NA,NA,NA,NA,NA,NA,sub-42134578
