wordCTK,colorCTK,corrAnsCTK,congruentCTK,wordPractice,colorPractice,congruentPractice,word,color,corrAns,congruent,trials_practice.thisRepN,trials_practice.thisTrialN,trials_practice.thisN,trials_test.thisRepN,trials_test.thisTrialN,trials_test.thisN,keyResp_test_run.keys,keyResp_test_run.corr,keyResp_test_run.rt,participant
NA,NA,NA,NA,NA,NA,NA,NA,NA,NA,NA,NA,NA,NA,NA,NA,NA,NA,NA,NA,sub-99854524
NA,NA,NA,NA,NA,NA,NA,NA,NA,NA,NA,NA,NA,NA,NA,NA,NA,NA,NA,NA,sub-99854524
test,blue,b,1,NA,NA,NA,NA,NA,NA,NA,NA,NA,NA,NA,NA,NA,NA,NA,NA,sub-99854524
test,yellow,g,1,NA,NA,NA,NA,NA,NA,NA,NA,NA,NA,NA,NA,NA,NA,NA,NA,sub-99854524
test,red,r,1,NA,NA,NA,NA,NA,NA,NA,NA,NA,NA,NA,NA,NA,NA,NA,NA,sub-99854524
test,red,r,1,NA,NA,NA,NA,NA,NA,NA,NA,NA,NA,NA,NA,NA,NA,NA,NA,sub-99854524
test,blue,b,1,NA,NA,NA,NA,NA,NA,NA,NA,NA,NA,NA,NA,NA,NA,NA,NA,sub-99854524
test,yellow,g,1,NA,NA,NA,NA,NA,NA,NA,NA,NA,NA,NA,NA,NA,NA,NA,NA,sub-99854524
test,red,r,1,NA,NA,NA,NA,NA,NA,NA,NA,NA,NA,NA,NA,NA,NA,NA,NA,sub-99854524
test,blue,b,1,NA,NA,NA,NA,NA,NA,NA,NA,NA,NA,NA,NA,NA,NA,NA,NA,sub-99854524
test,yellow,g,1,NA,NA,NA,NA,NA,NA,NA,NA,NA,NA,NA,NA,NA,NA,NA,NA,sub-99854524
test,yellow,g,1,NA,NA,NA,NA,NA,NA,NA,NA,NA,NA,NA,NA,NA,NA,NA,NA,sub-99854524
test,red,r,1,NA,NA,NA,NA,NA,NA,NA,NA,NA,NA,NA,NA,NA,NA,NA,NA,sub-99854524
test,blue,b,1,NA,NA,NA,NA,NA,NA,NA,NA,NA,NA,NA,NA,NA,NA,NA,NA,sub-99854524
NA,NA,NA,NA,NA,NA,NA,NA,NA,NA,NA,NA,NA,NA,NA,NA,NA,NA,NA,NA,sub-99854524
NA,NA,NA,NA,rot,red,1,NA,NA,NA,NA,0,0,0,NA,NA,NA,NA,NA,NA,sub-99854524
NA,NA,NA,NA,gelb,blue,0,NA,NA,NA,NA,0,1,1,NA,NA,NA,NA,NA,NA,sub-99854524
NA,NA,NA,NA,gelb,yellow,1,NA,NA,NA,NA,0,2,2,NA,NA,NA,NA,NA,NA,sub-99854524
NA,NA,NA,NA,rot,red,1,NA,NA,NA,NA,0,3,3,NA,NA,NA,NA,NA,NA,sub-99854524
NA,NA,NA,NA,blau,red,0,NA,NA,NA,NA,0,4,4,NA,NA,NA,NA,NA,NA,sub-99854524
NA,NA,NA,NA,gelb,yellow,1,NA,NA,NA,NA,0,5,5,NA,NA,NA,NA,NA,NA,sub-99854524
NA,NA,NA,NA,rot,blue,0,NA,NA,NA,NA,0,6,6,NA,NA,NA,NA,NA,NA,sub-99854524
NA,NA,NA,NA,rot,yellow,0,NA,NA,NA,NA,0,7,7,NA,NA,NA,NA,NA,NA,sub-99854524
NA,NA,NA,NA,gelb,red,0,NA,NA,NA,NA,0,8,8,NA,NA,NA,NA,NA,NA,sub-99854524
NA,NA,NA,NA,blau,yellow,0,NA,NA,NA,NA,0,9,9,NA,NA,NA,NA,NA,NA,sub-99854524
NA,NA,NA,NA,blau,blue,1,NA,NA,NA,NA,0,10,10,NA,NA,NA,NA,NA,NA,sub-99854524
NA,NA,NA,NA,blau,blue,1,NA,NA,NA,NA,0,11,11,NA,NA,NA,NA,NA,NA,sub-99854524
NA,NA,NA,NA,rot,blue,0,NA,NA,NA,NA,1,0,12,NA,NA,NA,NA,NA,NA,sub-99854524
NA,NA,NA,NA,blau,blue,1,NA,NA,NA,NA,1,1,13,NA,NA,NA,NA,NA,NA,sub-99854524
NA,NA,NA,NA,gelb,yellow,1,NA,NA,NA,NA,1,2,14,NA,NA,NA,NA,NA,NA,sub-99854524
NA,NA,NA,NA,rot,red,1,NA,NA,NA,NA,1,3,15,NA,NA,NA,NA,NA,NA,sub-99854524
NA,NA,NA,NA,gelb,blue,0,NA,NA,NA,NA,1,4,16,NA,NA,NA,NA,NA,NA,sub-99854524
NA,NA,NA,NA,blau,blue,1,NA,NA,NA,NA,1,5,17,NA,NA,NA,NA,NA,NA,sub-99854524
NA,NA,NA,NA,rot,yellow,0,NA,NA,NA,NA,1,6,18,NA,NA,NA,NA,NA,NA,sub-99854524
NA,NA,NA,NA,gelb,yellow,1,NA,NA,NA,NA,1,7,19,NA,NA,NA,NA,NA,NA,sub-99854524
NA,NA,NA,NA,blau,red,0,NA,NA,NA,NA,1,8,20,NA,NA,NA,NA,NA,NA,sub-99854524
NA,NA,NA,NA,rot,red,1,NA,NA,NA,NA,1,9,21,NA,NA,NA,NA,NA,NA,sub-99854524
NA,NA,NA,NA,gelb,red,0,NA,NA,NA,NA,1,10,22,NA,NA,NA,NA,NA,NA,sub-99854524
NA,NA,NA,NA,blau,yellow,0,NA,NA,NA,NA,1,11,23,NA,NA,NA,NA,NA,NA,sub-99854524
NA,NA,NA,NA,NA,NA,NA,NA,NA,NA,NA,NA,NA,NA,NA,NA,NA,NA,NA,NA,sub-99854524
NA,NA,NA,NA,NA,NA,NA,blau,blue,b,1,NA,NA,NA,0,0,0,b,1,1.8148138340038713,sub-99854524
NA,NA,NA,NA,NA,NA,NA,gelb,yellow,g,1,NA,NA,NA,0,1,1,g,1,0.9547579450008924,sub-99854524
NA,NA,NA,NA,NA,NA,NA,rot,yellow,g,0,NA,NA,NA,0,2,2,g,1,0.837931934001972,sub-99854524
NA,NA,NA,NA,NA,NA,NA,gelb,blue,b,0,NA,NA,NA,0,3,3,b,1,1.1214174409979023,sub-99854524
NA,NA,NA,NA,NA,NA,NA,blau,blue,b,1,NA,NA,NA,0,4,4,b,1,0.8175028879995807,sub-99854524
NA,NA,NA,NA,NA,NA,NA,rot,red,r,1,NA,NA,NA,0,5,5,r,1,0.7350938890012912,sub-99854524
NA,NA,NA,NA,NA,NA,NA,gelb,red,r,0,NA,NA,NA,0,6,6,r,1,0.9455963739965229,sub-99854524
NA,NA,NA,NA,NA,NA,NA,rot,red,r,1,NA,NA,NA,0,7,7,r,1,1.0009336020011688,sub-99854524
NA,NA,NA,NA,NA,NA,NA,blau,red,r,0,NA,NA,NA,0,8,8,r,1,1.0476745090054465,sub-99854524
NA,NA,NA,NA,NA,NA,NA,gelb,yellow,g,1,NA,NA,NA,0,9,9,g,1,1.849504778001574,sub-99854524
NA,NA,NA,NA,NA,NA,NA,blau,yellow,g,0,NA,NA,NA,0,10,10,g,1,0.9253739080013474,sub-99854524
NA,NA,NA,NA,NA,NA,NA,rot,blue,b,0,NA,NA,NA,0,11,11,b,1,0.9281821699987632,sub-99854524
NA,NA,NA,NA,NA,NA,NA,blau,blue,b,1,NA,NA,NA,1,0,12,b,1,0.7397369590034941,sub-99854524
NA,NA,NA,NA,NA,NA,NA,gelb,yellow,g,1,NA,NA,NA,1,1,13,g,1,0.8378938020032365,sub-99854524
NA,NA,NA,NA,NA,NA,NA,rot,blue,b,0,NA,NA,NA,1,2,14,b,1,0.7925424960048986,sub-99854524
NA,NA,NA,NA,NA,NA,NA,blau,yellow,g,0,NA,NA,NA,1,3,15,g,1,1.0649834139985614,sub-99854524
NA,NA,NA,NA,NA,NA,NA,rot,yellow,g,0,NA,NA,NA,1,4,16,g,1,1.4999994800018612,sub-99854524
NA,NA,NA,NA,NA,NA,NA,rot,red,r,1,NA,NA,NA,1,5,17,r,1,0.7000556499988306,sub-99854524
NA,NA,NA,NA,NA,NA,NA,rot,red,r,1,NA,NA,NA,1,6,18,r,1,0.8746632700058399,sub-99854524
NA,NA,NA,NA,NA,NA,NA,blau,blue,b,1,NA,NA,NA,1,7,19,b,1,0.9764695720004966,sub-99854524
NA,NA,NA,NA,NA,NA,NA,gelb,red,r,0,NA,NA,NA,1,8,20,r,1,0.8826851240010001,sub-99854524
NA,NA,NA,NA,NA,NA,NA,gelb,blue,b,0,NA,NA,NA,1,9,21,b,1,1.0994959420058876,sub-99854524
NA,NA,NA,NA,NA,NA,NA,blau,red,r,0,NA,NA,NA,1,10,22,r,1,0.9120283629963524,sub-99854524
NA,NA,NA,NA,NA,NA,NA,gelb,yellow,g,1,NA,NA,NA,1,11,23,g,1,1.2891731310010073,sub-99854524
NA,NA,NA,NA,NA,NA,NA,blau,blue,b,1,NA,NA,NA,2,0,24,b,1,1.3927554250039975,sub-99854524
NA,NA,NA,NA,NA,NA,NA,blau,yellow,g,0,NA,NA,NA,2,1,25,g,1,1.7192917770007623,sub-99854524
NA,NA,NA,NA,NA,NA,NA,rot,blue,b,0,NA,NA,NA,2,2,26,b,1,1.6605850830019335,sub-99854524
NA,NA,NA,NA,NA,NA,NA,blau,blue,b,1,NA,NA,NA,2,3,27,b,1,0.8673701129955589,sub-99854524
NA,NA,NA,NA,NA,NA,NA,rot,red,r,1,NA,NA,NA,2,4,28,r,1,0.659657113996218,sub-99854524
NA,NA,NA,NA,NA,NA,NA,gelb,blue,b,0,NA,NA,NA,2,5,29,b,1,0.8606389280030271,sub-99854524
NA,NA,NA,NA,NA,NA,NA,gelb,red,r,0,NA,NA,NA,2,6,30,r,1,0.8466234739971696,sub-99854524
NA,NA,NA,NA,NA,NA,NA,rot,red,r,1,NA,NA,NA,2,7,31,r,1,0.6018254939990584,sub-99854524
NA,NA,NA,NA,NA,NA,NA,blau,red,r,0,NA,NA,NA,2,8,32,r,1,0.9139030250007636,sub-99854524
NA,NA,NA,NA,NA,NA,NA,gelb,yellow,g,1,NA,NA,NA,2,9,33,g,1,0.7436295799998334,sub-99854524
NA,NA,NA,NA,NA,NA,NA,gelb,yellow,g,1,NA,NA,NA,2,10,34,g,1,0.7616517320057028,sub-99854524
NA,NA,NA,NA,NA,NA,NA,rot,yellow,g,0,NA,NA,NA,2,11,35,g,1,1.3562234880009785,sub-99854524
NA,NA,NA,NA,NA,NA,NA,gelb,red,r,0,NA,NA,NA,3,0,36,r,1,0.7592317079979694,sub-99854524
NA,NA,NA,NA,NA,NA,NA,rot,red,r,1,NA,NA,NA,3,1,37,r,1,0.8089296690013725,sub-99854524
NA,NA,NA,NA,NA,NA,NA,gelb,yellow,g,1,NA,NA,NA,3,2,38,g,1,0.8660633699983009,sub-99854524
NA,NA,NA,NA,NA,NA,NA,rot,blue,b,0,NA,NA,NA,3,3,39,b,1,0.6503375179963768,sub-99854524
NA,NA,NA,NA,NA,NA,NA,gelb,yellow,g,1,NA,NA,NA,3,4,40,g,1,0.7019892280004569,sub-99854524
NA,NA,NA,NA,NA,NA,NA,rot,red,r,1,NA,NA,NA,3,5,41,r,1,1.0640584299981128,sub-99854524
NA,NA,NA,NA,NA,NA,NA,blau,red,r,0,NA,NA,NA,3,6,42,r,1,0.9835878759986372,sub-99854524
NA,NA,NA,NA,NA,NA,NA,blau,blue,b,1,NA,NA,NA,3,7,43,b,1,0.6487994970011641,sub-99854524
NA,NA,NA,NA,NA,NA,NA,blau,blue,b,1,NA,NA,NA,3,8,44,b,1,0.6291823110004771,sub-99854524
NA,NA,NA,NA,NA,NA,NA,gelb,blue,b,0,NA,NA,NA,3,9,45,b,1,0.9517522919995828,sub-99854524
NA,NA,NA,NA,NA,NA,NA,rot,yellow,g,0,NA,NA,NA,3,10,46,g,1,0.7710842269952991,sub-99854524
NA,NA,NA,NA,NA,NA,NA,blau,yellow,g,0,NA,NA,NA,3,11,47,g,1,0.798772921996715,sub-99854524
NA,NA,NA,NA,NA,NA,NA,blau,yellow,g,0,NA,NA,NA,4,0,48,g,1,0.8844737379986327,sub-99854524
NA,NA,NA,NA,NA,NA,NA,rot,red,r,1,NA,NA,NA,4,1,49,r,1,0.8185370970022632,sub-99854524
NA,NA,NA,NA,NA,NA,NA,gelb,red,r,0,NA,NA,NA,4,2,50,r,1,0.8508821550058201,sub-99854524
NA,NA,NA,NA,NA,NA,NA,gelb,yellow,g,1,NA,NA,NA,4,3,51,g,1,1.094524524996814,sub-99854524
NA,NA,NA,NA,NA,NA,NA,gelb,blue,b,0,NA,NA,NA,4,4,52,b,1,0.898509662001743,sub-99854524
NA,NA,NA,NA,NA,NA,NA,rot,red,r,1,NA,NA,NA,4,5,53,r,1,0.647624133998761,sub-99854524
NA,NA,NA,NA,NA,NA,NA,blau,blue,b,1,NA,NA,NA,4,6,54,b,1,1.010553197003901,sub-99854524
NA,NA,NA,NA,NA,NA,NA,blau,red,r,0,NA,NA,NA,4,7,55,r,1,0.862285408002208,sub-99854524
NA,NA,NA,NA,NA,NA,NA,blau,blue,b,1,NA,NA,NA,4,8,56,b,1,1.712396611001168,sub-99854524
NA,NA,NA,NA,NA,NA,NA,rot,blue,b,0,NA,NA,NA,4,9,57,b,1,0.7222508659979212,sub-99854524
NA,NA,NA,NA,NA,NA,NA,gelb,yellow,g,1,NA,NA,NA,4,10,58,g,1,0.8278685719997156,sub-99854524
NA,NA,NA,NA,NA,NA,NA,rot,yellow,g,0,NA,NA,NA,4,11,59,g,1,0.8590247640022426,sub-99854524
NA,NA,NA,NA,NA,NA,NA,gelb,blue,b,0,NA,NA,NA,5,0,60,b,1,0.8628356179979164,sub-99854524
NA,NA,NA,NA,NA,NA,NA,blau,blue,b,1,NA,NA,NA,5,1,61,b,1,0.5470518110014382,sub-99854524
NA,NA,NA,NA,NA,NA,NA,gelb,red,r,0,NA,NA,NA,5,2,62,r,1,0.7917207380014588,sub-99854524
NA,NA,NA,NA,NA,NA,NA,gelb,yellow,g,1,NA,NA,NA,5,3,63,g,1,0.5328018459986197,sub-99854524
NA,NA,NA,NA,NA,NA,NA,rot,blue,b,0,NA,NA,NA,5,4,64,b,1,1.1779066050003166,sub-99854524
NA,NA,NA,NA,NA,NA,NA,blau,red,r,0,NA,NA,NA,5,5,65,r,1,0.7826774729983299,sub-99854524
NA,NA,NA,NA,NA,NA,NA,rot,red,r,1,NA,NA,NA,5,6,66,r,1,0.5585859190032352,sub-99854524
NA,NA,NA,NA,NA,NA,NA,blau,blue,b,1,NA,NA,NA,5,7,67,b,1,0.5426568019975093,sub-99854524
NA,NA,NA,NA,NA,NA,NA,gelb,yellow,g,1,NA,NA,NA,5,8,68,g,1,0.71047876800003,sub-99854524
NA,NA,NA,NA,NA,NA,NA,rot,yellow,g,0,NA,NA,NA,5,9,69,g,1,0.8012504810030805,sub-99854524
NA,NA,NA,NA,NA,NA,NA,rot,red,r,1,NA,NA,NA,5,10,70,r,1,0.7622224220031057,sub-99854524
NA,NA,NA,NA,NA,NA,NA,blau,yellow,g,0,NA,NA,NA,5,11,71,g,1,1.3427577310067136,sub-99854524
NA,NA,NA,NA,NA,NA,NA,rot,blue,b,0,NA,NA,NA,6,0,72,b,1,1.1778821109983255,sub-99854524
NA,NA,NA,NA,NA,NA,NA,rot,yellow,g,0,NA,NA,NA,6,1,73,g,1,0.7319568050006637,sub-99854524
NA,NA,NA,NA,NA,NA,NA,blau,blue,b,1,NA,NA,NA,6,2,74,b,1,0.8667095720011275,sub-99854524
NA,NA,NA,NA,NA,NA,NA,gelb,yellow,g,1,NA,NA,NA,6,3,75,g,1,0.9461592689985991,sub-99854524
NA,NA,NA,NA,NA,NA,NA,blau,red,r,0,NA,NA,NA,6,4,76,r,1,0.6793229910035734,sub-99854524
NA,NA,NA,NA,NA,NA,NA,rot,red,r,1,NA,NA,NA,6,5,77,r,1,0.629658247999032,sub-99854524
NA,NA,NA,NA,NA,NA,NA,gelb,blue,b,0,NA,NA,NA,6,6,78,b,1,0.988723716000095,sub-99854524
NA,NA,NA,NA,NA,NA,NA,gelb,yellow,g,1,NA,NA,NA,6,7,79,g,1,0.6288581519984291,sub-99854524
NA,NA,NA,NA,NA,NA,NA,rot,red,r,1,NA,NA,NA,6,8,80,r,1,0.7414856710020103,sub-99854524
NA,NA,NA,NA,NA,NA,NA,blau,yellow,g,0,NA,NA,NA,6,9,81,g,1,0.8532872860014322,sub-99854524
NA,NA,NA,NA,NA,NA,NA,blau,blue,b,1,NA,NA,NA,6,10,82,b,1,0.6338139580038842,sub-99854524
NA,NA,NA,NA,NA,NA,NA,gelb,red,r,0,NA,NA,NA,6,11,83,r,1,0.612970388996473,sub-99854524
NA,NA,NA,NA,NA,NA,NA,rot,red,r,1,NA,NA,NA,7,0,84,r,1,0.5341119349977816,sub-99854524
NA,NA,NA,NA,NA,NA,NA,rot,yellow,g,0,NA,NA,NA,7,1,85,g,1,0.8685093199965195,sub-99854524
NA,NA,NA,NA,NA,NA,NA,blau,blue,b,1,NA,NA,NA,7,2,86,b,1,0.5385495369991986,sub-99854524
NA,NA,NA,NA,NA,NA,NA,blau,red,r,0,NA,NA,NA,7,3,87,r,1,0.6865778519932064,sub-99854524
NA,NA,NA,NA,NA,NA,NA,blau,yellow,g,0,NA,NA,NA,7,4,88,g,1,0.6822710059932433,sub-99854524
NA,NA,NA,NA,NA,NA,NA,rot,red,r,1,NA,NA,NA,7,5,89,r,1,0.6434082929990836,sub-99854524
NA,NA,NA,NA,NA,NA,NA,gelb,yellow,g,1,NA,NA,NA,7,6,90,g,1,0.5971894090034766,sub-99854524
NA,NA,NA,NA,NA,NA,NA,rot,blue,b,0,NA,NA,NA,7,7,91,b,1,1.2813301140049589,sub-99854524
NA,NA,NA,NA,NA,NA,NA,gelb,yellow,g,1,NA,NA,NA,7,8,92,g,1,0.7000592550029978,sub-99854524
NA,NA,NA,NA,NA,NA,NA,gelb,red,r,0,NA,NA,NA,7,9,93,r,1,0.6763787029995001,sub-99854524
NA,NA,NA,NA,NA,NA,NA,blau,blue,b,1,NA,NA,NA,7,10,94,b,1,0.6393132570010494,sub-99854524
NA,NA,NA,NA,NA,NA,NA,gelb,blue,b,0,NA,NA,NA,7,11,95,b,1,0.7591983460006304,sub-99854524
NA,NA,NA,NA,NA,NA,NA,blau,blue,b,1,NA,NA,NA,8,0,96,b,1,0.9010927060007816,sub-99854524
NA,NA,NA,NA,NA,NA,NA,rot,red,r,1,NA,NA,NA,8,1,97,r,1,0.5599370449999697,sub-99854524
NA,NA,NA,NA,NA,NA,NA,rot,red,r,1,NA,NA,NA,8,2,98,r,1,0.859493748001114,sub-99854524
NA,NA,NA,NA,NA,NA,NA,blau,red,r,0,NA,NA,NA,8,3,99,r,1,0.7935326040023938,sub-99854524
NA,NA,NA,NA,NA,NA,NA,gelb,yellow,g,1,NA,NA,NA,8,4,100,g,1,0.5838568239996675,sub-99854524
NA,NA,NA,NA,NA,NA,NA,rot,blue,b,0,NA,NA,NA,8,5,101,b,1,0.9815299550027704,sub-99854524
NA,NA,NA,NA,NA,NA,NA,gelb,red,r,0,NA,NA,NA,8,6,102,r,1,1.049526231996424,sub-99854524
NA,NA,NA,NA,NA,NA,NA,gelb,blue,b,0,NA,NA,NA,8,7,103,b,1,0.8485483990007197,sub-99854524
NA,NA,NA,NA,NA,NA,NA,gelb,yellow,g,1,NA,NA,NA,8,8,104,g,1,0.6940312920050928,sub-99854524
NA,NA,NA,NA,NA,NA,NA,rot,yellow,g,0,NA,NA,NA,8,9,105,r,0,0.8777873590006493,sub-99854524
NA,NA,NA,NA,NA,NA,NA,blau,yellow,g,0,NA,NA,NA,8,10,106,b,0,0.8451634169978206,sub-99854524
NA,NA,NA,NA,NA,NA,NA,blau,blue,b,1,NA,NA,NA,8,11,107,b,1,0.8246361420024186,sub-99854524
NA,NA,NA,NA,NA,NA,NA,gelb,yellow,g,1,NA,NA,NA,9,0,108,g,1,0.704432653998083,sub-99854524
NA,NA,NA,NA,NA,NA,NA,gelb,red,r,0,NA,NA,NA,9,1,109,r,1,0.9703796130052068,sub-99854524
NA,NA,NA,NA,NA,NA,NA,blau,blue,b,1,NA,NA,NA,9,2,110,b,1,0.6969445700015058,sub-99854524
NA,NA,NA,NA,NA,NA,NA,rot,yellow,g,0,NA,NA,NA,9,3,111,g,1,1.0635810940002557,sub-99854524
NA,NA,NA,NA,NA,NA,NA,rot,red,r,1,NA,NA,NA,9,4,112,r,1,0.7420802159977029,sub-99854524
NA,NA,NA,NA,NA,NA,NA,rot,red,r,1,NA,NA,NA,9,5,113,r,1,0.7323087109980406,sub-99854524
NA,NA,NA,NA,NA,NA,NA,gelb,blue,b,0,NA,NA,NA,9,6,114,b,1,0.8062940859963419,sub-99854524
NA,NA,NA,NA,NA,NA,NA,blau,blue,b,1,NA,NA,NA,9,7,115,b,1,0.8545096009984263,sub-99854524
NA,NA,NA,NA,NA,NA,NA,blau,red,r,0,NA,NA,NA,9,8,116,r,1,0.91678572800447,sub-99854524
NA,NA,NA,NA,NA,NA,NA,blau,yellow,g,0,NA,NA,NA,9,9,117,g,1,0.9830381530045996,sub-99854524
NA,NA,NA,NA,NA,NA,NA,gelb,yellow,g,1,NA,NA,NA,9,10,118,g,1,0.7652824339966173,sub-99854524
NA,NA,NA,NA,NA,NA,NA,rot,blue,b,0,NA,NA,NA,9,11,119,b,1,0.7210445989985601,sub-99854524
NA,NA,NA,NA,NA,NA,NA,NA,NA,NA,NA,NA,NA,NA,NA,NA,NA,NA,NA,NA,sub-99854524
