wordCTK,colorCTK,corrAnsCTK,congruentCTK,wordPractice,colorPractice,congruentPractice,word,color,corrAns,congruent,trials_practice.thisRepN,trials_practice.thisTrialN,trials_practice.thisN,trials_test.thisRepN,trials_test.thisTrialN,trials_test.thisN,keyResp_test_run.keys,keyResp_test_run.corr,keyResp_test_run.rt,participant
NA,NA,NA,NA,NA,NA,NA,NA,NA,NA,NA,NA,NA,NA,NA,NA,NA,NA,NA,NA,sub-74487595
NA,NA,NA,NA,NA,NA,NA,NA,NA,NA,NA,NA,NA,NA,NA,NA,NA,NA,NA,NA,sub-74487595
test,yellow,g,1,NA,NA,NA,NA,NA,NA,NA,NA,NA,NA,NA,NA,NA,NA,NA,NA,sub-74487595
test,red,r,1,NA,NA,NA,NA,NA,NA,NA,NA,NA,NA,NA,NA,NA,NA,NA,NA,sub-74487595
test,blue,b,1,NA,NA,NA,NA,NA,NA,NA,NA,NA,NA,NA,NA,NA,NA,NA,NA,sub-74487595
test,red,r,1,NA,NA,NA,NA,NA,NA,NA,NA,NA,NA,NA,NA,NA,NA,NA,NA,sub-74487595
test,blue,b,1,NA,NA,NA,NA,NA,NA,NA,NA,NA,NA,NA,NA,NA,NA,NA,NA,sub-74487595
test,yellow,g,1,NA,NA,NA,NA,NA,NA,NA,NA,NA,NA,NA,NA,NA,NA,NA,NA,sub-74487595
test,yellow,g,1,NA,NA,NA,NA,NA,NA,NA,NA,NA,NA,NA,NA,NA,NA,NA,NA,sub-74487595
test,blue,b,1,NA,NA,NA,NA,NA,NA,NA,NA,NA,NA,NA,NA,NA,NA,NA,NA,sub-74487595
test,red,r,1,NA,NA,NA,NA,NA,NA,NA,NA,NA,NA,NA,NA,NA,NA,NA,NA,sub-74487595
test,blue,b,1,NA,NA,NA,NA,NA,NA,NA,NA,NA,NA,NA,NA,NA,NA,NA,NA,sub-74487595
test,yellow,g,1,NA,NA,NA,NA,NA,NA,NA,NA,NA,NA,NA,NA,NA,NA,NA,NA,sub-74487595
test,red,r,1,NA,NA,NA,NA,NA,NA,NA,NA,NA,NA,NA,NA,NA,NA,NA,NA,sub-74487595
NA,NA,NA,NA,NA,NA,NA,NA,NA,NA,NA,NA,NA,NA,NA,NA,NA,NA,NA,NA,sub-74487595
NA,NA,NA,NA,blau,blue,1,NA,NA,NA,NA,0,0,0,NA,NA,NA,NA,NA,NA,sub-74487595
NA,NA,NA,NA,rot,yellow,0,NA,NA,NA,NA,0,1,1,NA,NA,NA,NA,NA,NA,sub-74487595
NA,NA,NA,NA,gelb,yellow,1,NA,NA,NA,NA,0,2,2,NA,NA,NA,NA,NA,NA,sub-74487595
NA,NA,NA,NA,gelb,red,0,NA,NA,NA,NA,0,3,3,NA,NA,NA,NA,NA,NA,sub-74487595
NA,NA,NA,NA,blau,yellow,0,NA,NA,NA,NA,0,4,4,NA,NA,NA,NA,NA,NA,sub-74487595
NA,NA,NA,NA,gelb,blue,0,NA,NA,NA,NA,0,5,5,NA,NA,NA,NA,NA,NA,sub-74487595
NA,NA,NA,NA,blau,blue,1,NA,NA,NA,NA,0,6,6,NA,NA,NA,NA,NA,NA,sub-74487595
NA,NA,NA,NA,rot,red,1,NA,NA,NA,NA,0,7,7,NA,NA,NA,NA,NA,NA,sub-74487595
NA,NA,NA,NA,gelb,yellow,1,NA,NA,NA,NA,0,8,8,NA,NA,NA,NA,NA,NA,sub-74487595
NA,NA,NA,NA,blau,red,0,NA,NA,NA,NA,0,9,9,NA,NA,NA,NA,NA,NA,sub-74487595
NA,NA,NA,NA,rot,blue,0,NA,NA,NA,NA,0,10,10,NA,NA,NA,NA,NA,NA,sub-74487595
NA,NA,NA,NA,rot,red,1,NA,NA,NA,NA,0,11,11,NA,NA,NA,NA,NA,NA,sub-74487595
NA,NA,NA,NA,gelb,blue,0,NA,NA,NA,NA,1,0,12,NA,NA,NA,NA,NA,NA,sub-74487595
NA,NA,NA,NA,blau,yellow,0,NA,NA,NA,NA,1,1,13,NA,NA,NA,NA,NA,NA,sub-74487595
NA,NA,NA,NA,rot,blue,0,NA,NA,NA,NA,1,2,14,NA,NA,NA,NA,NA,NA,sub-74487595
NA,NA,NA,NA,rot,red,1,NA,NA,NA,NA,1,3,15,NA,NA,NA,NA,NA,NA,sub-74487595
NA,NA,NA,NA,blau,blue,1,NA,NA,NA,NA,1,4,16,NA,NA,NA,NA,NA,NA,sub-74487595
NA,NA,NA,NA,gelb,yellow,1,NA,NA,NA,NA,1,5,17,NA,NA,NA,NA,NA,NA,sub-74487595
NA,NA,NA,NA,rot,red,1,NA,NA,NA,NA,1,6,18,NA,NA,NA,NA,NA,NA,sub-74487595
NA,NA,NA,NA,gelb,yellow,1,NA,NA,NA,NA,1,7,19,NA,NA,NA,NA,NA,NA,sub-74487595
NA,NA,NA,NA,gelb,red,0,NA,NA,NA,NA,1,8,20,NA,NA,NA,NA,NA,NA,sub-74487595
NA,NA,NA,NA,blau,red,0,NA,NA,NA,NA,1,9,21,NA,NA,NA,NA,NA,NA,sub-74487595
NA,NA,NA,NA,rot,yellow,0,NA,NA,NA,NA,1,10,22,NA,NA,NA,NA,NA,NA,sub-74487595
NA,NA,NA,NA,blau,blue,1,NA,NA,NA,NA,1,11,23,NA,NA,NA,NA,NA,NA,sub-74487595
NA,NA,NA,NA,NA,NA,NA,NA,NA,NA,NA,NA,NA,NA,NA,NA,NA,NA,NA,NA,sub-74487595
NA,NA,NA,NA,NA,NA,NA,gelb,yellow,g,1,NA,NA,NA,0,0,0,g,1,0.6807656000019051,sub-74487595
NA,NA,NA,NA,NA,NA,NA,rot,blue,b,0,NA,NA,NA,0,1,1,b,1,0.4417775999972946,sub-74487595
NA,NA,NA,NA,NA,NA,NA,rot,red,r,1,NA,NA,NA,0,2,2,r,1,0.5967650000020512,sub-74487595
NA,NA,NA,NA,NA,NA,NA,rot,yellow,g,0,NA,NA,NA,0,3,3,g,1,0.9554596000016318,sub-74487595
NA,NA,NA,NA,NA,NA,NA,blau,blue,b,1,NA,NA,NA,0,4,4,b,1,0.5315312999955495,sub-74487595
NA,NA,NA,NA,NA,NA,NA,gelb,yellow,g,1,NA,NA,NA,0,5,5,g,1,0.6727649999957066,sub-74487595
NA,NA,NA,NA,NA,NA,NA,blau,blue,b,1,NA,NA,NA,0,6,6,b,1,0.5114680999977281,sub-74487595
NA,NA,NA,NA,NA,NA,NA,gelb,red,r,0,NA,NA,NA,0,7,7,r,1,0.38210800000524614,sub-74487595
NA,NA,NA,NA,NA,NA,NA,blau,red,r,0,NA,NA,NA,0,8,8,r,1,0.5155950000043958,sub-74487595
NA,NA,NA,NA,NA,NA,NA,rot,red,r,1,NA,NA,NA,0,9,9,r,1,0.48523130000103265,sub-74487595
NA,NA,NA,NA,NA,NA,NA,blau,yellow,g,0,NA,NA,NA,0,10,10,g,1,0.44288439999945695,sub-74487595
NA,NA,NA,NA,NA,NA,NA,gelb,blue,b,0,NA,NA,NA,0,11,11,b,1,0.5009126000004471,sub-74487595
NA,NA,NA,NA,NA,NA,NA,blau,red,r,0,NA,NA,NA,1,0,12,r,1,0.5209899000037694,sub-74487595
NA,NA,NA,NA,NA,NA,NA,gelb,blue,b,0,NA,NA,NA,1,1,13,b,1,0.8884289999987232,sub-74487595
NA,NA,NA,NA,NA,NA,NA,rot,red,r,1,NA,NA,NA,1,2,14,r,1,0.3893344999960391,sub-74487595
NA,NA,NA,NA,NA,NA,NA,gelb,yellow,g,1,NA,NA,NA,1,3,15,g,1,0.4927132000011625,sub-74487595
NA,NA,NA,NA,NA,NA,NA,blau,yellow,g,0,NA,NA,NA,1,4,16,b,0,0.7396567000032519,sub-74487595
NA,NA,NA,NA,NA,NA,NA,rot,red,r,1,NA,NA,NA,1,5,17,r,1,1.0043542999992496,sub-74487595
NA,NA,NA,NA,NA,NA,NA,gelb,yellow,g,1,NA,NA,NA,1,6,18,g,1,0.5406844999961322,sub-74487595
NA,NA,NA,NA,NA,NA,NA,blau,blue,b,1,NA,NA,NA,1,7,19,b,1,0.3644535999992513,sub-74487595
NA,NA,NA,NA,NA,NA,NA,rot,blue,b,0,NA,NA,NA,1,8,20,b,1,0.7561999000026844,sub-74487595
NA,NA,NA,NA,NA,NA,NA,rot,yellow,g,0,NA,NA,NA,1,9,21,g,1,0.5209604999981821,sub-74487595
NA,NA,NA,NA,NA,NA,NA,blau,blue,b,1,NA,NA,NA,1,10,22,b,1,0.5005837999997311,sub-74487595
NA,NA,NA,NA,NA,NA,NA,gelb,red,r,0,NA,NA,NA,1,11,23,r,1,0.40189470000041183,sub-74487595
NA,NA,NA,NA,NA,NA,NA,gelb,yellow,g,1,NA,NA,NA,2,0,24,g,1,0.5676681000040844,sub-74487595
NA,NA,NA,NA,NA,NA,NA,blau,yellow,g,0,NA,NA,NA,2,1,25,g,1,0.6003626999954577,sub-74487595
NA,NA,NA,NA,NA,NA,NA,blau,blue,b,1,NA,NA,NA,2,2,26,b,1,0.5624706999951741,sub-74487595
NA,NA,NA,NA,NA,NA,NA,rot,blue,b,0,NA,NA,NA,2,3,27,b,1,0.598469100004877,sub-74487595
NA,NA,NA,NA,NA,NA,NA,blau,red,r,0,NA,NA,NA,2,4,28,r,1,0.317160699996748,sub-74487595
NA,NA,NA,NA,NA,NA,NA,rot,yellow,g,0,NA,NA,NA,2,5,29,g,1,0.38669780000054743,sub-74487595
NA,NA,NA,NA,NA,NA,NA,gelb,red,r,0,NA,NA,NA,2,6,30,r,1,0.5636568999980227,sub-74487595
NA,NA,NA,NA,NA,NA,NA,gelb,yellow,g,1,NA,NA,NA,2,7,31,b,0,0.5129892999975709,sub-74487595
NA,NA,NA,NA,NA,NA,NA,blau,blue,b,1,NA,NA,NA,2,8,32,b,1,0.7634490999989794,sub-74487595
NA,NA,NA,NA,NA,NA,NA,rot,red,r,1,NA,NA,NA,2,9,33,r,1,0.7009003999992274,sub-74487595
NA,NA,NA,NA,NA,NA,NA,rot,red,r,1,NA,NA,NA,2,10,34,r,1,0.5031109000046854,sub-74487595
NA,NA,NA,NA,NA,NA,NA,gelb,blue,b,0,NA,NA,NA,2,11,35,b,1,0.7372399000014411,sub-74487595
NA,NA,NA,NA,NA,NA,NA,blau,blue,b,1,NA,NA,NA,3,0,36,b,1,0.45714399999997113,sub-74487595
NA,NA,NA,NA,NA,NA,NA,rot,red,r,1,NA,NA,NA,3,1,37,r,1,0.5616061000037007,sub-74487595
NA,NA,NA,NA,NA,NA,NA,rot,red,r,1,NA,NA,NA,3,2,38,r,1,0.5359932999999728,sub-74487595
NA,NA,NA,NA,NA,NA,NA,blau,red,r,0,NA,NA,NA,3,3,39,r,1,0.6481753999978537,sub-74487595
NA,NA,NA,NA,NA,NA,NA,gelb,yellow,g,1,NA,NA,NA,3,4,40,g,1,0.485162400000263,sub-74487595
NA,NA,NA,NA,NA,NA,NA,gelb,red,r,0,NA,NA,NA,3,5,41,r,1,0.4362357999998494,sub-74487595
NA,NA,NA,NA,NA,NA,NA,blau,blue,b,1,NA,NA,NA,3,6,42,b,1,0.45466599999781465,sub-74487595
NA,NA,NA,NA,NA,NA,NA,gelb,blue,b,0,NA,NA,NA,3,7,43,b,1,0.4703284000061103,sub-74487595
NA,NA,NA,NA,NA,NA,NA,blau,yellow,g,0,NA,NA,NA,3,8,44,g,1,0.5968347000016365,sub-74487595
NA,NA,NA,NA,NA,NA,NA,gelb,yellow,g,1,NA,NA,NA,3,9,45,g,1,0.4698242000013124,sub-74487595
NA,NA,NA,NA,NA,NA,NA,rot,yellow,g,0,NA,NA,NA,3,10,46,g,1,0.4341827999960514,sub-74487595
NA,NA,NA,NA,NA,NA,NA,rot,blue,b,0,NA,NA,NA,3,11,47,b,1,0.5427127000002656,sub-74487595
NA,NA,NA,NA,NA,NA,NA,rot,red,r,1,NA,NA,NA,4,0,48,r,1,0.5656858000002103,sub-74487595
NA,NA,NA,NA,NA,NA,NA,blau,red,r,0,NA,NA,NA,4,1,49,r,1,0.6223134999963804,sub-74487595
NA,NA,NA,NA,NA,NA,NA,gelb,blue,b,0,NA,NA,NA,4,2,50,b,1,0.7470507999969414,sub-74487595
NA,NA,NA,NA,NA,NA,NA,gelb,red,r,0,NA,NA,NA,4,3,51,r,1,0.42680989999644225,sub-74487595
NA,NA,NA,NA,NA,NA,NA,rot,red,r,1,NA,NA,NA,4,4,52,r,1,0.6364863999988302,sub-74487595
NA,NA,NA,NA,NA,NA,NA,rot,yellow,g,0,NA,NA,NA,4,5,53,g,1,0.613956600005622,sub-74487595
NA,NA,NA,NA,NA,NA,NA,gelb,yellow,g,1,NA,NA,NA,4,6,54,g,1,0.5134169000011752,sub-74487595
NA,NA,NA,NA,NA,NA,NA,gelb,yellow,g,1,NA,NA,NA,4,7,55,g,1,0.4264364000046044,sub-74487595
NA,NA,NA,NA,NA,NA,NA,blau,blue,b,1,NA,NA,NA,4,8,56,b,1,0.4852383999968879,sub-74487595
NA,NA,NA,NA,NA,NA,NA,blau,yellow,g,0,NA,NA,NA,4,9,57,g,1,0.5639551999993273,sub-74487595
NA,NA,NA,NA,NA,NA,NA,rot,blue,b,0,NA,NA,NA,4,10,58,b,1,0.3984046999976272,sub-74487595
NA,NA,NA,NA,NA,NA,NA,blau,blue,b,1,NA,NA,NA,4,11,59,b,1,0.49771139999938896,sub-74487595
NA,NA,NA,NA,NA,NA,NA,rot,blue,b,0,NA,NA,NA,5,0,60,b,1,0.4894962000034866,sub-74487595
NA,NA,NA,NA,NA,NA,NA,gelb,red,r,0,NA,NA,NA,5,1,61,r,1,0.5349491000015405,sub-74487595
NA,NA,NA,NA,NA,NA,NA,gelb,blue,b,0,NA,NA,NA,5,2,62,b,1,0.465370999998413,sub-74487595
NA,NA,NA,NA,NA,NA,NA,rot,yellow,g,0,NA,NA,NA,5,3,63,g,1,0.6179437000027974,sub-74487595
NA,NA,NA,NA,NA,NA,NA,blau,red,r,0,NA,NA,NA,5,4,64,r,1,0.7692400000014459,sub-74487595
NA,NA,NA,NA,NA,NA,NA,blau,blue,b,1,NA,NA,NA,5,5,65,b,1,0.4638918999989982,sub-74487595
NA,NA,NA,NA,NA,NA,NA,rot,red,r,1,NA,NA,NA,5,6,66,g,0,0.5774324000012712,sub-74487595
NA,NA,NA,NA,NA,NA,NA,gelb,yellow,g,1,NA,NA,NA,5,7,67,g,1,0.6158060000016121,sub-74487595
NA,NA,NA,NA,NA,NA,NA,rot,red,r,1,NA,NA,NA,5,8,68,r,1,0.47854889999871375,sub-74487595
NA,NA,NA,NA,NA,NA,NA,blau,yellow,g,0,NA,NA,NA,5,9,69,g,1,0.6726477999982308,sub-74487595
NA,NA,NA,NA,NA,NA,NA,gelb,yellow,g,1,NA,NA,NA,5,10,70,g,1,0.4081153000006452,sub-74487595
NA,NA,NA,NA,NA,NA,NA,blau,blue,b,1,NA,NA,NA,5,11,71,b,1,0.5164233999967109,sub-74487595
NA,NA,NA,NA,NA,NA,NA,rot,red,r,1,NA,NA,NA,6,0,72,r,1,0.5972293000013451,sub-74487595
NA,NA,NA,NA,NA,NA,NA,gelb,red,r,0,NA,NA,NA,6,1,73,r,1,0.5852807999981451,sub-74487595
NA,NA,NA,NA,NA,NA,NA,gelb,yellow,g,1,NA,NA,NA,6,2,74,g,1,0.4920962999967742,sub-74487595
NA,NA,NA,NA,NA,NA,NA,blau,red,r,0,NA,NA,NA,6,3,75,r,1,0.5833662000004551,sub-74487595
NA,NA,NA,NA,NA,NA,NA,blau,blue,b,1,NA,NA,NA,6,4,76,b,1,0.3664716999992379,sub-74487595
NA,NA,NA,NA,NA,NA,NA,gelb,blue,b,0,NA,NA,NA,6,5,77,r,0,0.8264438999976846,sub-74487595
NA,NA,NA,NA,NA,NA,NA,rot,blue,b,0,NA,NA,NA,6,6,78,b,1,0.6034733999986202,sub-74487595
NA,NA,NA,NA,NA,NA,NA,rot,red,r,1,NA,NA,NA,6,7,79,r,1,0.7359144000001834,sub-74487595
NA,NA,NA,NA,NA,NA,NA,rot,yellow,g,0,NA,NA,NA,6,8,80,g,1,0.7010227999999188,sub-74487595
NA,NA,NA,NA,NA,NA,NA,blau,blue,b,1,NA,NA,NA,6,9,81,b,1,0.5121559999970486,sub-74487595
NA,NA,NA,NA,NA,NA,NA,gelb,yellow,g,1,NA,NA,NA,6,10,82,g,1,0.5828464000005624,sub-74487595
NA,NA,NA,NA,NA,NA,NA,blau,yellow,g,0,NA,NA,NA,6,11,83,g,1,0.5868637999956263,sub-74487595
NA,NA,NA,NA,NA,NA,NA,blau,red,r,0,NA,NA,NA,7,0,84,r,1,0.7166625000027125,sub-74487595
NA,NA,NA,NA,NA,NA,NA,rot,yellow,g,0,NA,NA,NA,7,1,85,g,1,0.6829500999956508,sub-74487595
NA,NA,NA,NA,NA,NA,NA,blau,blue,b,1,NA,NA,NA,7,2,86,b,1,0.3733256999985315,sub-74487595
NA,NA,NA,NA,NA,NA,NA,gelb,red,r,0,NA,NA,NA,7,3,87,r,1,0.6807096999982605,sub-74487595
NA,NA,NA,NA,NA,NA,NA,gelb,blue,b,0,NA,NA,NA,7,4,88,b,1,0.7305313000033493,sub-74487595
NA,NA,NA,NA,NA,NA,NA,blau,blue,b,1,NA,NA,NA,7,5,89,b,1,0.5294165000013891,sub-74487595
NA,NA,NA,NA,NA,NA,NA,rot,red,r,1,NA,NA,NA,7,6,90,r,1,0.489836100001412,sub-74487595
NA,NA,NA,NA,NA,NA,NA,rot,red,r,1,NA,NA,NA,7,7,91,r,1,0.7043529000002309,sub-74487595
NA,NA,NA,NA,NA,NA,NA,rot,blue,b,0,NA,NA,NA,7,8,92,b,1,0.5826033000048483,sub-74487595
NA,NA,NA,NA,NA,NA,NA,gelb,yellow,g,1,NA,NA,NA,7,9,93,g,1,0.5464189000049373,sub-74487595
NA,NA,NA,NA,NA,NA,NA,gelb,yellow,g,1,NA,NA,NA,7,10,94,g,1,0.40976490000321064,sub-74487595
NA,NA,NA,NA,NA,NA,NA,blau,yellow,g,0,NA,NA,NA,7,11,95,g,1,0.499054600004456,sub-74487595
NA,NA,NA,NA,NA,NA,NA,rot,blue,b,0,NA,NA,NA,8,0,96,b,1,0.4715001999938977,sub-74487595
NA,NA,NA,NA,NA,NA,NA,blau,red,r,0,NA,NA,NA,8,1,97,r,1,0.4321154999997816,sub-74487595
NA,NA,NA,NA,NA,NA,NA,gelb,blue,b,0,NA,NA,NA,8,2,98,g,0,0.4390955000053509,sub-74487595
NA,NA,NA,NA,NA,NA,NA,gelb,yellow,g,1,NA,NA,NA,8,3,99,g,1,0.6111550000059651,sub-74487595
NA,NA,NA,NA,NA,NA,NA,gelb,red,r,0,NA,NA,NA,8,4,100,r,1,0.5917665000015404,sub-74487595
NA,NA,NA,NA,NA,NA,NA,blau,yellow,g,0,NA,NA,NA,8,5,101,r,0,0.7583651000022655,sub-74487595
NA,NA,NA,NA,NA,NA,NA,rot,red,r,1,NA,NA,NA,8,6,102,r,1,0.9081007999993744,sub-74487595
NA,NA,NA,NA,NA,NA,NA,blau,blue,b,1,NA,NA,NA,8,7,103,b,1,0.6441903000013554,sub-74487595
NA,NA,NA,NA,NA,NA,NA,rot,yellow,g,0,NA,NA,NA,8,8,104,g,1,0.4490544000000227,sub-74487595
NA,NA,NA,NA,NA,NA,NA,rot,red,r,1,NA,NA,NA,8,9,105,r,1,0.5356794000035734,sub-74487595
NA,NA,NA,NA,NA,NA,NA,blau,blue,b,1,NA,NA,NA,8,10,106,b,1,0.6048255999994581,sub-74487595
NA,NA,NA,NA,NA,NA,NA,gelb,yellow,g,1,NA,NA,NA,8,11,107,g,1,0.6502266000024974,sub-74487595
NA,NA,NA,NA,NA,NA,NA,blau,blue,b,1,NA,NA,NA,9,0,108,b,1,0.6083660000003874,sub-74487595
NA,NA,NA,NA,NA,NA,NA,blau,red,r,0,NA,NA,NA,9,1,109,r,1,1.011923599995498,sub-74487595
NA,NA,NA,NA,NA,NA,NA,rot,yellow,g,0,NA,NA,NA,9,2,110,g,1,0.5654129000031389,sub-74487595
NA,NA,NA,NA,NA,NA,NA,blau,yellow,g,0,NA,NA,NA,9,3,111,g,1,0.4276084999946761,sub-74487595
NA,NA,NA,NA,NA,NA,NA,gelb,yellow,g,1,NA,NA,NA,9,4,112,g,1,0.38565920000110054,sub-74487595
NA,NA,NA,NA,NA,NA,NA,rot,red,r,1,NA,NA,NA,9,5,113,r,1,0.42408630000136327,sub-74487595
NA,NA,NA,NA,NA,NA,NA,rot,red,r,1,NA,NA,NA,9,6,114,r,1,0.5399822999970638,sub-74487595
NA,NA,NA,NA,NA,NA,NA,gelb,red,r,0,NA,NA,NA,9,7,115,r,1,1.3063990999944508,sub-74487595
NA,NA,NA,NA,NA,NA,NA,blau,blue,b,1,NA,NA,NA,9,8,116,b,1,0.415517200002796,sub-74487595
NA,NA,NA,NA,NA,NA,NA,rot,blue,b,0,NA,NA,NA,9,9,117,b,1,0.4367112999971141,sub-74487595
NA,NA,NA,NA,NA,NA,NA,gelb,blue,b,0,NA,NA,NA,9,10,118,b,1,0.45758009999553906,sub-74487595
NA,NA,NA,NA,NA,NA,NA,gelb,yellow,g,1,NA,NA,NA,9,11,119,g,1,0.4052058999950532,sub-74487595
NA,NA,NA,NA,NA,NA,NA,NA,NA,NA,NA,NA,NA,NA,NA,NA,NA,NA,NA,NA,sub-74487595
