wordCTK,colorCTK,corrAnsCTK,congruentCTK,wordPractice,colorPractice,congruentPractice,word,color,corrAns,congruent,trials_practice.thisRepN,trials_practice.thisTrialN,trials_practice.thisN,trials_test.thisRepN,trials_test.thisTrialN,trials_test.thisN,keyResp_test_run.keys,keyResp_test_run.corr,keyResp_test_run.rt,participant
NA,NA,NA,NA,NA,NA,NA,NA,NA,NA,NA,NA,NA,NA,NA,NA,NA,NA,NA,NA,sub-3894556
NA,NA,NA,NA,NA,NA,NA,NA,NA,NA,NA,NA,NA,NA,NA,NA,NA,NA,NA,NA,sub-3894556
test,blue,b,1,NA,NA,NA,NA,NA,NA,NA,NA,NA,NA,NA,NA,NA,NA,NA,NA,sub-3894556
test,yellow,g,1,NA,NA,NA,NA,NA,NA,NA,NA,NA,NA,NA,NA,NA,NA,NA,NA,sub-3894556
test,red,r,1,NA,NA,NA,NA,NA,NA,NA,NA,NA,NA,NA,NA,NA,NA,NA,NA,sub-3894556
test,blue,b,1,NA,NA,NA,NA,NA,NA,NA,NA,NA,NA,NA,NA,NA,NA,NA,NA,sub-3894556
test,red,r,1,NA,NA,NA,NA,NA,NA,NA,NA,NA,NA,NA,NA,NA,NA,NA,NA,sub-3894556
test,yellow,g,1,NA,NA,NA,NA,NA,NA,NA,NA,NA,NA,NA,NA,NA,NA,NA,NA,sub-3894556
test,yellow,g,1,NA,NA,NA,NA,NA,NA,NA,NA,NA,NA,NA,NA,NA,NA,NA,NA,sub-3894556
test,red,r,1,NA,NA,NA,NA,NA,NA,NA,NA,NA,NA,NA,NA,NA,NA,NA,NA,sub-3894556
test,blue,b,1,NA,NA,NA,NA,NA,NA,NA,NA,NA,NA,NA,NA,NA,NA,NA,NA,sub-3894556
test,blue,b,1,NA,NA,NA,NA,NA,NA,NA,NA,NA,NA,NA,NA,NA,NA,NA,NA,sub-3894556
test,red,r,1,NA,NA,NA,NA,NA,NA,NA,NA,NA,NA,NA,NA,NA,NA,NA,NA,sub-3894556
test,yellow,g,1,NA,NA,NA,NA,NA,NA,NA,NA,NA,NA,NA,NA,NA,NA,NA,NA,sub-3894556
NA,NA,NA,NA,NA,NA,NA,NA,NA,NA,NA,NA,NA,NA,NA,NA,NA,NA,NA,NA,sub-3894556
NA,NA,NA,NA,gelb,yellow,1,NA,NA,NA,NA,0,0,0,NA,NA,NA,NA,NA,NA,sub-3894556
NA,NA,NA,NA,blau,yellow,0,NA,NA,NA,NA,0,1,1,NA,NA,NA,NA,NA,NA,sub-3894556
NA,NA,NA,NA,blau,blue,1,NA,NA,NA,NA,0,2,2,NA,NA,NA,NA,NA,NA,sub-3894556
NA,NA,NA,NA,gelb,blue,0,NA,NA,NA,NA,0,3,3,NA,NA,NA,NA,NA,NA,sub-3894556
NA,NA,NA,NA,rot,red,1,NA,NA,NA,NA,0,4,4,NA,NA,NA,NA,NA,NA,sub-3894556
NA,NA,NA,NA,blau,blue,1,NA,NA,NA,NA,0,5,5,NA,NA,NA,NA,NA,NA,sub-3894556
NA,NA,NA,NA,gelb,red,0,NA,NA,NA,NA,0,6,6,NA,NA,NA,NA,NA,NA,sub-3894556
NA,NA,NA,NA,rot,red,1,NA,NA,NA,NA,0,7,7,NA,NA,NA,NA,NA,NA,sub-3894556
NA,NA,NA,NA,rot,yellow,0,NA,NA,NA,NA,0,8,8,NA,NA,NA,NA,NA,NA,sub-3894556
NA,NA,NA,NA,gelb,yellow,1,NA,NA,NA,NA,0,9,9,NA,NA,NA,NA,NA,NA,sub-3894556
NA,NA,NA,NA,rot,blue,0,NA,NA,NA,NA,0,10,10,NA,NA,NA,NA,NA,NA,sub-3894556
NA,NA,NA,NA,blau,red,0,NA,NA,NA,NA,0,11,11,NA,NA,NA,NA,NA,NA,sub-3894556
NA,NA,NA,NA,blau,yellow,0,NA,NA,NA,NA,1,0,12,NA,NA,NA,NA,NA,NA,sub-3894556
NA,NA,NA,NA,gelb,yellow,1,NA,NA,NA,NA,1,1,13,NA,NA,NA,NA,NA,NA,sub-3894556
NA,NA,NA,NA,rot,red,1,NA,NA,NA,NA,1,2,14,NA,NA,NA,NA,NA,NA,sub-3894556
NA,NA,NA,NA,blau,blue,1,NA,NA,NA,NA,1,3,15,NA,NA,NA,NA,NA,NA,sub-3894556
NA,NA,NA,NA,gelb,blue,0,NA,NA,NA,NA,1,4,16,NA,NA,NA,NA,NA,NA,sub-3894556
NA,NA,NA,NA,blau,blue,1,NA,NA,NA,NA,1,5,17,NA,NA,NA,NA,NA,NA,sub-3894556
NA,NA,NA,NA,rot,blue,0,NA,NA,NA,NA,1,6,18,NA,NA,NA,NA,NA,NA,sub-3894556
NA,NA,NA,NA,blau,red,0,NA,NA,NA,NA,1,7,19,NA,NA,NA,NA,NA,NA,sub-3894556
NA,NA,NA,NA,gelb,red,0,NA,NA,NA,NA,1,8,20,NA,NA,NA,NA,NA,NA,sub-3894556
NA,NA,NA,NA,rot,red,1,NA,NA,NA,NA,1,9,21,NA,NA,NA,NA,NA,NA,sub-3894556
NA,NA,NA,NA,rot,yellow,0,NA,NA,NA,NA,1,10,22,NA,NA,NA,NA,NA,NA,sub-3894556
NA,NA,NA,NA,gelb,yellow,1,NA,NA,NA,NA,1,11,23,NA,NA,NA,NA,NA,NA,sub-3894556
NA,NA,NA,NA,NA,NA,NA,NA,NA,NA,NA,NA,NA,NA,NA,NA,NA,NA,NA,NA,sub-3894556
NA,NA,NA,NA,NA,NA,NA,rot,blue,b,0,NA,NA,NA,0,0,0,b,1,0.5307472,sub-3894556
NA,NA,NA,NA,NA,NA,NA,gelb,red,r,0,NA,NA,NA,0,1,1,r,1,1.3341273,sub-3894556
NA,NA,NA,NA,NA,NA,NA,blau,red,r,0,NA,NA,NA,0,2,2,r,1,0.5108964,sub-3894556
NA,NA,NA,NA,NA,NA,NA,blau,blue,b,1,NA,NA,NA,0,3,3,b,1,0.5006748,sub-3894556
NA,NA,NA,NA,NA,NA,NA,gelb,yellow,g,1,NA,NA,NA,0,4,4,g,1,0.4972337,sub-3894556
NA,NA,NA,NA,NA,NA,NA,gelb,blue,b,0,NA,NA,NA,0,5,5,b,1,0.6209747,sub-3894556
NA,NA,NA,NA,NA,NA,NA,blau,blue,b,1,NA,NA,NA,0,6,6,b,1,0.4145907,sub-3894556
NA,NA,NA,NA,NA,NA,NA,rot,red,r,1,NA,NA,NA,0,7,7,r,1,0.5232235,sub-3894556
NA,NA,NA,NA,NA,NA,NA,rot,red,r,1,NA,NA,NA,0,8,8,r,1,0.498143,sub-3894556
NA,NA,NA,NA,NA,NA,NA,rot,yellow,g,0,NA,NA,NA,0,9,9,g,1,0.5980133,sub-3894556
NA,NA,NA,NA,NA,NA,NA,blau,yellow,g,0,NA,NA,NA,0,10,10,g,1,0.660401,sub-3894556
NA,NA,NA,NA,NA,NA,NA,gelb,yellow,g,1,NA,NA,NA,0,11,11,g,1,0.3688199,sub-3894556
NA,NA,NA,NA,NA,NA,NA,rot,red,r,1,NA,NA,NA,1,0,12,r,1,0.4722006,sub-3894556
NA,NA,NA,NA,NA,NA,NA,gelb,yellow,g,1,NA,NA,NA,1,1,13,g,1,0.475914,sub-3894556
NA,NA,NA,NA,NA,NA,NA,blau,blue,b,1,NA,NA,NA,1,2,14,b,1,0.4551793,sub-3894556
NA,NA,NA,NA,NA,NA,NA,gelb,yellow,g,1,NA,NA,NA,1,3,15,g,1,0.6204413,sub-3894556
NA,NA,NA,NA,NA,NA,NA,gelb,red,r,0,NA,NA,NA,1,4,16,r,1,0.6127828,sub-3894556
NA,NA,NA,NA,NA,NA,NA,rot,red,r,1,NA,NA,NA,1,5,17,r,1,0.5719433,sub-3894556
NA,NA,NA,NA,NA,NA,NA,blau,blue,b,1,NA,NA,NA,1,6,18,b,1,0.4806435,sub-3894556
NA,NA,NA,NA,NA,NA,NA,rot,yellow,g,0,NA,NA,NA,1,7,19,g,1,0.5158296,sub-3894556
NA,NA,NA,NA,NA,NA,NA,blau,yellow,g,0,NA,NA,NA,1,8,20,g,1,0.6098702,sub-3894556
NA,NA,NA,NA,NA,NA,NA,blau,red,r,0,NA,NA,NA,1,9,21,r,1,1.2549842,sub-3894556
NA,NA,NA,NA,NA,NA,NA,rot,blue,b,0,NA,NA,NA,1,10,22,b,1,0.8409393,sub-3894556
NA,NA,NA,NA,NA,NA,NA,gelb,blue,b,0,NA,NA,NA,1,11,23,b,1,0.6657497,sub-3894556
NA,NA,NA,NA,NA,NA,NA,blau,yellow,g,0,NA,NA,NA,2,0,24,g,1,0.544663,sub-3894556
NA,NA,NA,NA,NA,NA,NA,rot,blue,b,0,NA,NA,NA,2,1,25,b,1,0.5033245,sub-3894556
NA,NA,NA,NA,NA,NA,NA,gelb,yellow,g,1,NA,NA,NA,2,2,26,g,1,0.7277538,sub-3894556
NA,NA,NA,NA,NA,NA,NA,rot,yellow,g,0,NA,NA,NA,2,3,27,g,1,0.6822148,sub-3894556
NA,NA,NA,NA,NA,NA,NA,blau,blue,b,1,NA,NA,NA,2,4,28,b,1,0.4677486,sub-3894556
NA,NA,NA,NA,NA,NA,NA,gelb,blue,b,0,NA,NA,NA,2,5,29,b,1,0.4355877,sub-3894556
NA,NA,NA,NA,NA,NA,NA,rot,red,r,1,NA,NA,NA,2,6,30,r,1,0.4299576,sub-3894556
NA,NA,NA,NA,NA,NA,NA,blau,blue,b,1,NA,NA,NA,2,7,31,b,1,0.7485148,sub-3894556
NA,NA,NA,NA,NA,NA,NA,blau,red,r,0,NA,NA,NA,2,8,32,r,1,0.720481,sub-3894556
NA,NA,NA,NA,NA,NA,NA,gelb,yellow,g,1,NA,NA,NA,2,9,33,g,1,0.7578467,sub-3894556
NA,NA,NA,NA,NA,NA,NA,gelb,red,r,0,NA,NA,NA,2,10,34,r,1,0.9206498,sub-3894556
NA,NA,NA,NA,NA,NA,NA,rot,red,r,1,NA,NA,NA,2,11,35,r,1,0.676524,sub-3894556
NA,NA,NA,NA,NA,NA,NA,blau,red,r,0,NA,NA,NA,3,0,36,r,1,0.4357504,sub-3894556
NA,NA,NA,NA,NA,NA,NA,rot,red,r,1,NA,NA,NA,3,1,37,r,1,0.5259453,sub-3894556
NA,NA,NA,NA,NA,NA,NA,rot,yellow,g,0,NA,NA,NA,3,2,38,g,1,0.7374614,sub-3894556
NA,NA,NA,NA,NA,NA,NA,gelb,blue,b,0,NA,NA,NA,3,3,39,b,1,0.5101709,sub-3894556
NA,NA,NA,NA,NA,NA,NA,rot,blue,b,0,NA,NA,NA,3,4,40,b,1,0.4502919,sub-3894556
NA,NA,NA,NA,NA,NA,NA,gelb,yellow,g,1,NA,NA,NA,3,5,41,g,1,1.1835167,sub-3894556
NA,NA,NA,NA,NA,NA,NA,rot,red,r,1,NA,NA,NA,3,6,42,r,1,0.6353741,sub-3894556
NA,NA,NA,NA,NA,NA,NA,gelb,red,r,0,NA,NA,NA,3,7,43,r,1,1.4161471,sub-3894556
NA,NA,NA,NA,NA,NA,NA,blau,yellow,g,0,NA,NA,NA,3,8,44,g,1,1.2337832,sub-3894556
NA,NA,NA,NA,NA,NA,NA,blau,blue,b,1,NA,NA,NA,3,9,45,b,1,1.0172715,sub-3894556
NA,NA,NA,NA,NA,NA,NA,gelb,yellow,g,1,NA,NA,NA,3,10,46,g,1,0.9418038,sub-3894556
NA,NA,NA,NA,NA,NA,NA,blau,blue,b,1,NA,NA,NA,3,11,47,b,1,0.5406988,sub-3894556
NA,NA,NA,NA,NA,NA,NA,gelb,red,r,0,NA,NA,NA,4,0,48,r,1,0.5354758,sub-3894556
NA,NA,NA,NA,NA,NA,NA,gelb,yellow,g,1,NA,NA,NA,4,1,49,g,1,0.8869169,sub-3894556
NA,NA,NA,NA,NA,NA,NA,gelb,blue,b,0,NA,NA,NA,4,2,50,b,1,0.7121114,sub-3894556
NA,NA,NA,NA,NA,NA,NA,blau,yellow,g,0,NA,NA,NA,4,3,51,g,1,0.6242461,sub-3894556
NA,NA,NA,NA,NA,NA,NA,blau,blue,b,1,NA,NA,NA,4,4,52,b,1,0.5004984,sub-3894556
NA,NA,NA,NA,NA,NA,NA,blau,blue,b,1,NA,NA,NA,4,5,53,b,1,0.4743477,sub-3894556
NA,NA,NA,NA,NA,NA,NA,blau,red,r,0,NA,NA,NA,4,6,54,r,1,1.4084645,sub-3894556
NA,NA,NA,NA,NA,NA,NA,rot,red,r,1,NA,NA,NA,4,7,55,r,1,0.5300379,sub-3894556
NA,NA,NA,NA,NA,NA,NA,gelb,yellow,g,1,NA,NA,NA,4,8,56,g,1,0.548181,sub-3894556
NA,NA,NA,NA,NA,NA,NA,rot,blue,b,0,NA,NA,NA,4,9,57,b,1,0.680059,sub-3894556
NA,NA,NA,NA,NA,NA,NA,rot,yellow,g,0,NA,NA,NA,4,10,58,g,1,0.7380169,sub-3894556
NA,NA,NA,NA,NA,NA,NA,rot,red,r,1,NA,NA,NA,4,11,59,r,1,0.9314821,sub-3894556
NA,NA,NA,NA,NA,NA,NA,gelb,yellow,g,1,NA,NA,NA,5,0,60,g,1,1.7677007,sub-3894556
NA,NA,NA,NA,NA,NA,NA,blau,blue,b,1,NA,NA,NA,5,1,61,b,1,0.611185,sub-3894556
NA,NA,NA,NA,NA,NA,NA,gelb,blue,b,0,NA,NA,NA,5,2,62,b,1,0.6029523,sub-3894556
NA,NA,NA,NA,NA,NA,NA,rot,blue,b,0,NA,NA,NA,5,3,63,b,1,0.4928855,sub-3894556
NA,NA,NA,NA,NA,NA,NA,blau,blue,b,1,NA,NA,NA,5,4,64,b,1,0.7743927,sub-3894556
NA,NA,NA,NA,NA,NA,NA,rot,red,r,1,NA,NA,NA,5,5,65,r,1,1.8177935,sub-3894556
NA,NA,NA,NA,NA,NA,NA,blau,red,r,0,NA,NA,NA,5,6,66,r,1,0.6815564,sub-3894556
NA,NA,NA,NA,NA,NA,NA,blau,yellow,g,0,NA,NA,NA,5,7,67,g,1,0.7112206,sub-3894556
NA,NA,NA,NA,NA,NA,NA,gelb,red,r,0,NA,NA,NA,5,8,68,r,1,0.8368012,sub-3894556
NA,NA,NA,NA,NA,NA,NA,rot,yellow,g,0,NA,NA,NA,5,9,69,g,1,0.6786317,sub-3894556
NA,NA,NA,NA,NA,NA,NA,rot,red,r,1,NA,NA,NA,5,10,70,r,1,0.5644338,sub-3894556
NA,NA,NA,NA,NA,NA,NA,gelb,yellow,g,1,NA,NA,NA,5,11,71,g,1,1.5476478,sub-3894556
NA,NA,NA,NA,NA,NA,NA,blau,blue,b,1,NA,NA,NA,6,0,72,b,1,0.5526544,sub-3894556
NA,NA,NA,NA,NA,NA,NA,rot,red,r,1,NA,NA,NA,6,1,73,r,1,0.7835835,sub-3894556
NA,NA,NA,NA,NA,NA,NA,gelb,yellow,g,1,NA,NA,NA,6,2,74,g,1,0.3604182,sub-3894556
NA,NA,NA,NA,NA,NA,NA,blau,yellow,g,0,NA,NA,NA,6,3,75,g,1,1.0602385,sub-3894556
NA,NA,NA,NA,NA,NA,NA,blau,red,r,0,NA,NA,NA,6,4,76,r,1,0.7495949,sub-3894556
NA,NA,NA,NA,NA,NA,NA,rot,yellow,g,0,NA,NA,NA,6,5,77,g,1,1.0508546,sub-3894556
NA,NA,NA,NA,NA,NA,NA,gelb,blue,b,0,NA,NA,NA,6,6,78,b,1,1.3376933,sub-3894556
NA,NA,NA,NA,NA,NA,NA,rot,red,r,1,NA,NA,NA,6,7,79,r,1,2.2106014,sub-3894556
NA,NA,NA,NA,NA,NA,NA,blau,blue,b,1,NA,NA,NA,6,8,80,b,1,0.565,sub-3894556
NA,NA,NA,NA,NA,NA,NA,rot,blue,b,0,NA,NA,NA,6,9,81,b,1,0.5642959,sub-3894556
NA,NA,NA,NA,NA,NA,NA,gelb,yellow,g,1,NA,NA,NA,6,10,82,g,1,0.8167359,sub-3894556
NA,NA,NA,NA,NA,NA,NA,gelb,red,r,0,NA,NA,NA,6,11,83,r,1,0.6795255,sub-3894556
NA,NA,NA,NA,NA,NA,NA,blau,yellow,g,0,NA,NA,NA,7,0,84,g,1,0.6614786,sub-3894556
NA,NA,NA,NA,NA,NA,NA,gelb,red,r,0,NA,NA,NA,7,1,85,r,1,0.4852122,sub-3894556
NA,NA,NA,NA,NA,NA,NA,gelb,yellow,g,1,NA,NA,NA,7,2,86,g,1,0.6686758,sub-3894556
NA,NA,NA,NA,NA,NA,NA,rot,red,r,1,NA,NA,NA,7,3,87,r,1,0.7162213,sub-3894556
NA,NA,NA,NA,NA,NA,NA,gelb,blue,b,0,NA,NA,NA,7,4,88,b,1,0.6955639,sub-3894556
NA,NA,NA,NA,NA,NA,NA,rot,blue,b,0,NA,NA,NA,7,5,89,b,1,0.7549894,sub-3894556
NA,NA,NA,NA,NA,NA,NA,rot,yellow,g,0,NA,NA,NA,7,6,90,g,1,0.6513293,sub-3894556
NA,NA,NA,NA,NA,NA,NA,blau,red,r,0,NA,NA,NA,7,7,91,r,1,0.6152502,sub-3894556
NA,NA,NA,NA,NA,NA,NA,gelb,yellow,g,1,NA,NA,NA,7,8,92,g,1,0.5919772,sub-3894556
NA,NA,NA,NA,NA,NA,NA,rot,red,r,1,NA,NA,NA,7,9,93,r,1,0.5373671,sub-3894556
NA,NA,NA,NA,NA,NA,NA,blau,blue,b,1,NA,NA,NA,7,10,94,b,1,0.5249316,sub-3894556
NA,NA,NA,NA,NA,NA,NA,blau,blue,b,1,NA,NA,NA,7,11,95,b,1,0.4710446,sub-3894556
NA,NA,NA,NA,NA,NA,NA,gelb,blue,b,0,NA,NA,NA,8,0,96,b,1,0.4439004,sub-3894556
NA,NA,NA,NA,NA,NA,NA,blau,blue,b,1,NA,NA,NA,8,1,97,b,1,0.4547901,sub-3894556
NA,NA,NA,NA,NA,NA,NA,gelb,yellow,g,1,NA,NA,NA,8,2,98,g,1,0.9510456,sub-3894556
NA,NA,NA,NA,NA,NA,NA,rot,yellow,g,0,NA,NA,NA,8,3,99,g,1,0.9060459,sub-3894556
NA,NA,NA,NA,NA,NA,NA,blau,blue,b,1,NA,NA,NA,8,4,100,b,1,1.0390465,sub-3894556
NA,NA,NA,NA,NA,NA,NA,blau,yellow,g,0,NA,NA,NA,8,5,101,g,1,0.9949479,sub-3894556
NA,NA,NA,NA,NA,NA,NA,rot,red,r,1,NA,NA,NA,8,6,102,r,1,0.7357203,sub-3894556
NA,NA,NA,NA,NA,NA,NA,gelb,red,r,0,NA,NA,NA,8,7,103,r,1,0.4186739,sub-3894556
NA,NA,NA,NA,NA,NA,NA,rot,blue,b,0,NA,NA,NA,8,8,104,b,1,0.8144031,sub-3894556
NA,NA,NA,NA,NA,NA,NA,rot,red,r,1,NA,NA,NA,8,9,105,r,1,0.750223,sub-3894556
NA,NA,NA,NA,NA,NA,NA,gelb,yellow,g,1,NA,NA,NA,8,10,106,g,1,0.4019471,sub-3894556
NA,NA,NA,NA,NA,NA,NA,blau,red,r,0,NA,NA,NA,8,11,107,r,1,1.1792888,sub-3894556
NA,NA,NA,NA,NA,NA,NA,rot,blue,b,0,NA,NA,NA,9,0,108,b,1,0.4939688,sub-3894556
NA,NA,NA,NA,NA,NA,NA,gelb,red,r,0,NA,NA,NA,9,1,109,r,1,1.0043044,sub-3894556
NA,NA,NA,NA,NA,NA,NA,rot,red,r,1,NA,NA,NA,9,2,110,r,1,0.5380496,sub-3894556
NA,NA,NA,NA,NA,NA,NA,blau,blue,b,1,NA,NA,NA,9,3,111,b,1,0.4876307,sub-3894556
NA,NA,NA,NA,NA,NA,NA,gelb,blue,b,0,NA,NA,NA,9,4,112,b,1,0.5064187,sub-3894556
NA,NA,NA,NA,NA,NA,NA,blau,blue,b,1,NA,NA,NA,9,5,113,b,1,0.4670257,sub-3894556
NA,NA,NA,NA,NA,NA,NA,gelb,yellow,g,1,NA,NA,NA,9,6,114,g,1,0.611011,sub-3894556
NA,NA,NA,NA,NA,NA,NA,rot,red,r,1,NA,NA,NA,9,7,115,r,1,0.4151381,sub-3894556
NA,NA,NA,NA,NA,NA,NA,gelb,yellow,g,1,NA,NA,NA,9,8,116,g,1,0.489316,sub-3894556
NA,NA,NA,NA,NA,NA,NA,rot,yellow,g,0,NA,NA,NA,9,9,117,r,0,0.4175527,sub-3894556
NA,NA,NA,NA,NA,NA,NA,blau,yellow,g,0,NA,NA,NA,9,10,118,g,1,0.8692155,sub-3894556
NA,NA,NA,NA,NA,NA,NA,blau,red,r,0,NA,NA,NA,9,11,119,r,1,0.8600318,sub-3894556
NA,NA,NA,NA,NA,NA,NA,NA,NA,NA,NA,NA,NA,NA,NA,NA,NA,NA,NA,NA,sub-3894556
