wordCTK,colorCTK,corrAnsCTK,congruentCTK,wordPractice,colorPractice,congruentPractice,word,color,corrAns,congruent,trials_practice.thisRepN,trials_practice.thisTrialN,trials_practice.thisN,trials_test.thisRepN,trials_test.thisTrialN,trials_test.thisN,keyResp_test_run.keys,keyResp_test_run.corr,keyResp_test_run.rt,participant
NA,NA,NA,NA,NA,NA,NA,NA,NA,NA,NA,NA,NA,NA,NA,NA,NA,NA,NA,NA,sub-46245146
NA,NA,NA,NA,NA,NA,NA,NA,NA,NA,NA,NA,NA,NA,NA,NA,NA,NA,NA,NA,sub-46245146
test,yellow,g,1,NA,NA,NA,NA,NA,NA,NA,NA,NA,NA,NA,NA,NA,NA,NA,NA,sub-46245146
test,blue,b,1,NA,NA,NA,NA,NA,NA,NA,NA,NA,NA,NA,NA,NA,NA,NA,NA,sub-46245146
test,red,r,1,NA,NA,NA,NA,NA,NA,NA,NA,NA,NA,NA,NA,NA,NA,NA,NA,sub-46245146
test,red,r,1,NA,NA,NA,NA,NA,NA,NA,NA,NA,NA,NA,NA,NA,NA,NA,NA,sub-46245146
test,blue,b,1,NA,NA,NA,NA,NA,NA,NA,NA,NA,NA,NA,NA,NA,NA,NA,NA,sub-46245146
test,yellow,g,1,NA,NA,NA,NA,NA,NA,NA,NA,NA,NA,NA,NA,NA,NA,NA,NA,sub-46245146
test,yellow,g,1,NA,NA,NA,NA,NA,NA,NA,NA,NA,NA,NA,NA,NA,NA,NA,NA,sub-46245146
test,red,r,1,NA,NA,NA,NA,NA,NA,NA,NA,NA,NA,NA,NA,NA,NA,NA,NA,sub-46245146
test,blue,b,1,NA,NA,NA,NA,NA,NA,NA,NA,NA,NA,NA,NA,NA,NA,NA,NA,sub-46245146
test,red,r,1,NA,NA,NA,NA,NA,NA,NA,NA,NA,NA,NA,NA,NA,NA,NA,NA,sub-46245146
test,blue,b,1,NA,NA,NA,NA,NA,NA,NA,NA,NA,NA,NA,NA,NA,NA,NA,NA,sub-46245146
test,yellow,g,1,NA,NA,NA,NA,NA,NA,NA,NA,NA,NA,NA,NA,NA,NA,NA,NA,sub-46245146
NA,NA,NA,NA,NA,NA,NA,NA,NA,NA,NA,NA,NA,NA,NA,NA,NA,NA,NA,NA,sub-46245146
NA,NA,NA,NA,blau,blue,1,NA,NA,NA,NA,0,0,0,NA,NA,NA,NA,NA,NA,sub-46245146
NA,NA,NA,NA,blau,blue,1,NA,NA,NA,NA,0,1,1,NA,NA,NA,NA,NA,NA,sub-46245146
NA,NA,NA,NA,gelb,blue,0,NA,NA,NA,NA,0,2,2,NA,NA,NA,NA,NA,NA,sub-46245146
NA,NA,NA,NA,gelb,yellow,1,NA,NA,NA,NA,0,3,3,NA,NA,NA,NA,NA,NA,sub-46245146
NA,NA,NA,NA,blau,red,0,NA,NA,NA,NA,0,4,4,NA,NA,NA,NA,NA,NA,sub-46245146
NA,NA,NA,NA,rot,blue,0,NA,NA,NA,NA,0,5,5,NA,NA,NA,NA,NA,NA,sub-46245146
NA,NA,NA,NA,blau,yellow,0,NA,NA,NA,NA,0,6,6,NA,NA,NA,NA,NA,NA,sub-46245146
NA,NA,NA,NA,rot,red,1,NA,NA,NA,NA,0,7,7,NA,NA,NA,NA,NA,NA,sub-46245146
NA,NA,NA,NA,gelb,red,0,NA,NA,NA,NA,0,8,8,NA,NA,NA,NA,NA,NA,sub-46245146
NA,NA,NA,NA,gelb,yellow,1,NA,NA,NA,NA,0,9,9,NA,NA,NA,NA,NA,NA,sub-46245146
NA,NA,NA,NA,rot,red,1,NA,NA,NA,NA,0,10,10,NA,NA,NA,NA,NA,NA,sub-46245146
NA,NA,NA,NA,rot,yellow,0,NA,NA,NA,NA,0,11,11,NA,NA,NA,NA,NA,NA,sub-46245146
NA,NA,NA,NA,blau,blue,1,NA,NA,NA,NA,1,0,12,NA,NA,NA,NA,NA,NA,sub-46245146
NA,NA,NA,NA,gelb,blue,0,NA,NA,NA,NA,1,1,13,NA,NA,NA,NA,NA,NA,sub-46245146
NA,NA,NA,NA,gelb,yellow,1,NA,NA,NA,NA,1,2,14,NA,NA,NA,NA,NA,NA,sub-46245146
NA,NA,NA,NA,rot,red,1,NA,NA,NA,NA,1,3,15,NA,NA,NA,NA,NA,NA,sub-46245146
NA,NA,NA,NA,rot,yellow,0,NA,NA,NA,NA,1,4,16,NA,NA,NA,NA,NA,NA,sub-46245146
NA,NA,NA,NA,gelb,red,0,NA,NA,NA,NA,1,5,17,NA,NA,NA,NA,NA,NA,sub-46245146
NA,NA,NA,NA,blau,red,0,NA,NA,NA,NA,1,6,18,NA,NA,NA,NA,NA,NA,sub-46245146
NA,NA,NA,NA,gelb,yellow,1,NA,NA,NA,NA,1,7,19,NA,NA,NA,NA,NA,NA,sub-46245146
NA,NA,NA,NA,blau,yellow,0,NA,NA,NA,NA,1,8,20,NA,NA,NA,NA,NA,NA,sub-46245146
NA,NA,NA,NA,blau,blue,1,NA,NA,NA,NA,1,9,21,NA,NA,NA,NA,NA,NA,sub-46245146
NA,NA,NA,NA,rot,blue,0,NA,NA,NA,NA,1,10,22,NA,NA,NA,NA,NA,NA,sub-46245146
NA,NA,NA,NA,rot,red,1,NA,NA,NA,NA,1,11,23,NA,NA,NA,NA,NA,NA,sub-46245146
NA,NA,NA,NA,NA,NA,NA,NA,NA,NA,NA,NA,NA,NA,NA,NA,NA,NA,NA,NA,sub-46245146
NA,NA,NA,NA,NA,NA,NA,blau,yellow,g,0,NA,NA,NA,0,0,0,g,1,0.7447423,sub-46245146
NA,NA,NA,NA,NA,NA,NA,blau,blue,b,1,NA,NA,NA,0,1,1,b,1,0.5006026,sub-46245146
NA,NA,NA,NA,NA,NA,NA,gelb,red,r,0,NA,NA,NA,0,2,2,r,1,0.5595471,sub-46245146
NA,NA,NA,NA,NA,NA,NA,gelb,blue,b,0,NA,NA,NA,0,3,3,b,1,0.6274877,sub-46245146
NA,NA,NA,NA,NA,NA,NA,blau,red,r,0,NA,NA,NA,0,4,4,r,1,0.6015214,sub-46245146
NA,NA,NA,NA,NA,NA,NA,rot,red,r,1,NA,NA,NA,0,5,5,r,1,0.5388723,sub-46245146
NA,NA,NA,NA,NA,NA,NA,rot,red,r,1,NA,NA,NA,0,6,6,r,1,0.5121017,sub-46245146
NA,NA,NA,NA,NA,NA,NA,rot,blue,b,0,NA,NA,NA,0,7,7,b,1,0.7865448,sub-46245146
NA,NA,NA,NA,NA,NA,NA,gelb,yellow,g,1,NA,NA,NA,0,8,8,g,1,0.5864451,sub-46245146
NA,NA,NA,NA,NA,NA,NA,gelb,yellow,g,1,NA,NA,NA,0,9,9,g,1,0.5472547,sub-46245146
NA,NA,NA,NA,NA,NA,NA,rot,yellow,g,0,NA,NA,NA,0,10,10,g,1,0.5791456,sub-46245146
NA,NA,NA,NA,NA,NA,NA,blau,blue,b,1,NA,NA,NA,0,11,11,b,1,0.5126576,sub-46245146
NA,NA,NA,NA,NA,NA,NA,rot,blue,b,0,NA,NA,NA,1,0,12,b,1,1.2821901,sub-46245146
NA,NA,NA,NA,NA,NA,NA,rot,yellow,g,0,NA,NA,NA,1,1,13,r,0,0.5622805,sub-46245146
NA,NA,NA,NA,NA,NA,NA,blau,blue,b,1,NA,NA,NA,1,2,14,b,1,1.2787515,sub-46245146
NA,NA,NA,NA,NA,NA,NA,gelb,blue,b,0,NA,NA,NA,1,3,15,b,1,0.8350504,sub-46245146
NA,NA,NA,NA,NA,NA,NA,rot,red,r,1,NA,NA,NA,1,4,16,r,1,0.541673,sub-46245146
NA,NA,NA,NA,NA,NA,NA,blau,yellow,g,0,NA,NA,NA,1,5,17,g,1,1.0088507,sub-46245146
NA,NA,NA,NA,NA,NA,NA,gelb,yellow,g,1,NA,NA,NA,1,6,18,g,1,0.6831014,sub-46245146
NA,NA,NA,NA,NA,NA,NA,gelb,red,r,0,NA,NA,NA,1,7,19,r,1,0.6636039,sub-46245146
NA,NA,NA,NA,NA,NA,NA,blau,blue,b,1,NA,NA,NA,1,8,20,b,1,0.4863958,sub-46245146
NA,NA,NA,NA,NA,NA,NA,blau,red,r,0,NA,NA,NA,1,9,21,r,1,0.6660287,sub-46245146
NA,NA,NA,NA,NA,NA,NA,gelb,yellow,g,1,NA,NA,NA,1,10,22,g,1,0.545048,sub-46245146
NA,NA,NA,NA,NA,NA,NA,rot,red,r,1,NA,NA,NA,1,11,23,r,1,0.6582519,sub-46245146
NA,NA,NA,NA,NA,NA,NA,gelb,red,r,0,NA,NA,NA,2,0,24,r,1,0.5328126,sub-46245146
NA,NA,NA,NA,NA,NA,NA,gelb,yellow,g,1,NA,NA,NA,2,1,25,g,1,0.6094106,sub-46245146
NA,NA,NA,NA,NA,NA,NA,rot,red,r,1,NA,NA,NA,2,2,26,r,1,0.5792921,sub-46245146
NA,NA,NA,NA,NA,NA,NA,rot,red,r,1,NA,NA,NA,2,3,27,r,1,0.5119131,sub-46245146
NA,NA,NA,NA,NA,NA,NA,blau,blue,b,1,NA,NA,NA,2,4,28,b,1,0.5433999,sub-46245146
NA,NA,NA,NA,NA,NA,NA,rot,yellow,g,0,NA,NA,NA,2,5,29,g,1,0.7446717,sub-46245146
NA,NA,NA,NA,NA,NA,NA,gelb,yellow,g,1,NA,NA,NA,2,6,30,g,1,0.4294645,sub-46245146
NA,NA,NA,NA,NA,NA,NA,gelb,blue,b,0,NA,NA,NA,2,7,31,b,1,0.4983788,sub-46245146
NA,NA,NA,NA,NA,NA,NA,blau,blue,b,1,NA,NA,NA,2,8,32,b,1,0.5219927,sub-46245146
NA,NA,NA,NA,NA,NA,NA,blau,yellow,g,0,NA,NA,NA,2,9,33,g,1,0.8138689,sub-46245146
NA,NA,NA,NA,NA,NA,NA,blau,red,r,0,NA,NA,NA,2,10,34,r,1,0.5982114,sub-46245146
NA,NA,NA,NA,NA,NA,NA,rot,blue,b,0,NA,NA,NA,2,11,35,b,1,0.9731032,sub-46245146
NA,NA,NA,NA,NA,NA,NA,gelb,blue,b,0,NA,NA,NA,3,0,36,b,1,0.5591527,sub-46245146
NA,NA,NA,NA,NA,NA,NA,blau,blue,b,1,NA,NA,NA,3,1,37,b,1,0.3807846,sub-46245146
NA,NA,NA,NA,NA,NA,NA,gelb,yellow,g,1,NA,NA,NA,3,2,38,g,1,0.6661223,sub-46245146
NA,NA,NA,NA,NA,NA,NA,rot,red,r,1,NA,NA,NA,3,3,39,r,1,0.5141913,sub-46245146
NA,NA,NA,NA,NA,NA,NA,gelb,yellow,g,1,NA,NA,NA,3,4,40,g,1,0.5513284,sub-46245146
NA,NA,NA,NA,NA,NA,NA,blau,blue,b,1,NA,NA,NA,3,5,41,b,1,0.4865191,sub-46245146
NA,NA,NA,NA,NA,NA,NA,rot,blue,b,0,NA,NA,NA,3,6,42,b,1,0.6943331,sub-46245146
NA,NA,NA,NA,NA,NA,NA,rot,red,r,1,NA,NA,NA,3,7,43,r,1,0.7518418,sub-46245146
NA,NA,NA,NA,NA,NA,NA,blau,yellow,g,0,NA,NA,NA,3,8,44,g,1,0.8519813,sub-46245146
NA,NA,NA,NA,NA,NA,NA,rot,yellow,g,0,NA,NA,NA,3,9,45,g,1,0.6225455,sub-46245146
NA,NA,NA,NA,NA,NA,NA,gelb,red,r,0,NA,NA,NA,3,10,46,r,1,0.7249206,sub-46245146
NA,NA,NA,NA,NA,NA,NA,blau,red,r,0,NA,NA,NA,3,11,47,r,1,0.7579211,sub-46245146
NA,NA,NA,NA,NA,NA,NA,blau,yellow,g,0,NA,NA,NA,4,0,48,g,1,0.7128443,sub-46245146
NA,NA,NA,NA,NA,NA,NA,blau,blue,b,1,NA,NA,NA,4,1,49,b,1,0.5290851,sub-46245146
NA,NA,NA,NA,NA,NA,NA,blau,blue,b,1,NA,NA,NA,4,2,50,b,1,0.4209091,sub-46245146
NA,NA,NA,NA,NA,NA,NA,gelb,yellow,g,1,NA,NA,NA,4,3,51,g,1,0.4944639,sub-46245146
NA,NA,NA,NA,NA,NA,NA,blau,red,r,0,NA,NA,NA,4,4,52,r,1,0.5707681,sub-46245146
NA,NA,NA,NA,NA,NA,NA,rot,red,r,1,NA,NA,NA,4,5,53,r,1,0.4856817,sub-46245146
NA,NA,NA,NA,NA,NA,NA,rot,yellow,g,0,NA,NA,NA,4,6,54,g,1,0.6013483,sub-46245146
NA,NA,NA,NA,NA,NA,NA,rot,red,r,1,NA,NA,NA,4,7,55,r,1,0.4307811,sub-46245146
NA,NA,NA,NA,NA,NA,NA,rot,blue,b,0,NA,NA,NA,4,8,56,b,1,0.533029,sub-46245146
NA,NA,NA,NA,NA,NA,NA,gelb,red,r,0,NA,NA,NA,4,9,57,r,1,0.7842476,sub-46245146
NA,NA,NA,NA,NA,NA,NA,gelb,yellow,g,1,NA,NA,NA,4,10,58,g,1,0.4021807,sub-46245146
NA,NA,NA,NA,NA,NA,NA,gelb,blue,b,0,NA,NA,NA,4,11,59,b,1,0.4827422,sub-46245146
NA,NA,NA,NA,NA,NA,NA,rot,yellow,g,0,NA,NA,NA,5,0,60,g,1,0.8174911,sub-46245146
NA,NA,NA,NA,NA,NA,NA,rot,blue,b,0,NA,NA,NA,5,1,61,b,1,0.8102243,sub-46245146
NA,NA,NA,NA,NA,NA,NA,rot,red,r,1,NA,NA,NA,5,2,62,r,1,0.5121302,sub-46245146
NA,NA,NA,NA,NA,NA,NA,blau,blue,b,1,NA,NA,NA,5,3,63,b,1,0.4889008,sub-46245146
NA,NA,NA,NA,NA,NA,NA,gelb,yellow,g,1,NA,NA,NA,5,4,64,g,1,0.5409898,sub-46245146
NA,NA,NA,NA,NA,NA,NA,blau,red,r,0,NA,NA,NA,5,5,65,r,1,0.6712695,sub-46245146
NA,NA,NA,NA,NA,NA,NA,rot,red,r,1,NA,NA,NA,5,6,66,r,1,0.4283675,sub-46245146
NA,NA,NA,NA,NA,NA,NA,blau,yellow,g,0,NA,NA,NA,5,7,67,b,0,0.5041676,sub-46245146
NA,NA,NA,NA,NA,NA,NA,blau,blue,b,1,NA,NA,NA,5,8,68,b,1,0.9734438,sub-46245146
NA,NA,NA,NA,NA,NA,NA,gelb,blue,b,0,NA,NA,NA,5,9,69,b,1,0.5030708,sub-46245146
NA,NA,NA,NA,NA,NA,NA,gelb,red,r,0,NA,NA,NA,5,10,70,r,1,0.6180833,sub-46245146
NA,NA,NA,NA,NA,NA,NA,gelb,yellow,g,1,NA,NA,NA,5,11,71,g,1,0.6296353,sub-46245146
NA,NA,NA,NA,NA,NA,NA,gelb,red,r,0,NA,NA,NA,6,0,72,r,1,0.5715989,sub-46245146
NA,NA,NA,NA,NA,NA,NA,blau,blue,b,1,NA,NA,NA,6,1,73,b,1,0.5524277,sub-46245146
NA,NA,NA,NA,NA,NA,NA,blau,blue,b,1,NA,NA,NA,6,2,74,b,1,0.3959181,sub-46245146
NA,NA,NA,NA,NA,NA,NA,rot,blue,b,0,NA,NA,NA,6,3,75,b,1,0.4230101,sub-46245146
NA,NA,NA,NA,NA,NA,NA,gelb,yellow,g,1,NA,NA,NA,6,4,76,g,1,0.5308411,sub-46245146
NA,NA,NA,NA,NA,NA,NA,blau,yellow,g,0,NA,NA,NA,6,5,77,g,1,1.4929392,sub-46245146
NA,NA,NA,NA,NA,NA,NA,gelb,yellow,g,1,NA,NA,NA,6,6,78,g,1,0.8362369,sub-46245146
NA,NA,NA,NA,NA,NA,NA,rot,red,r,1,NA,NA,NA,6,7,79,r,1,0.5563796,sub-46245146
NA,NA,NA,NA,NA,NA,NA,blau,red,r,0,NA,NA,NA,6,8,80,r,1,0.500858,sub-46245146
NA,NA,NA,NA,NA,NA,NA,rot,red,r,1,NA,NA,NA,6,9,81,r,1,0.4377935,sub-46245146
NA,NA,NA,NA,NA,NA,NA,gelb,blue,b,0,NA,NA,NA,6,10,82,b,1,0.7022325,sub-46245146
NA,NA,NA,NA,NA,NA,NA,rot,yellow,g,0,NA,NA,NA,6,11,83,g,1,0.6101617,sub-46245146
NA,NA,NA,NA,NA,NA,NA,rot,red,r,1,NA,NA,NA,7,0,84,r,1,0.5168434,sub-46245146
NA,NA,NA,NA,NA,NA,NA,gelb,blue,b,0,NA,NA,NA,7,1,85,g,0,0.8290155,sub-46245146
NA,NA,NA,NA,NA,NA,NA,gelb,yellow,g,1,NA,NA,NA,7,2,86,g,1,0.639489,sub-46245146
NA,NA,NA,NA,NA,NA,NA,gelb,red,r,0,NA,NA,NA,7,3,87,r,1,0.6030999,sub-46245146
NA,NA,NA,NA,NA,NA,NA,blau,blue,b,1,NA,NA,NA,7,4,88,b,1,0.6007755,sub-46245146
NA,NA,NA,NA,NA,NA,NA,rot,blue,b,0,NA,NA,NA,7,5,89,b,1,0.6180775,sub-46245146
NA,NA,NA,NA,NA,NA,NA,rot,red,r,1,NA,NA,NA,7,6,90,r,1,0.5221598,sub-46245146
NA,NA,NA,NA,NA,NA,NA,gelb,yellow,g,1,NA,NA,NA,7,7,91,g,1,0.565604,sub-46245146
NA,NA,NA,NA,NA,NA,NA,blau,yellow,g,0,NA,NA,NA,7,8,92,g,1,0.8786142,sub-46245146
NA,NA,NA,NA,NA,NA,NA,blau,red,r,0,NA,NA,NA,7,9,93,r,1,0.7311424,sub-46245146
NA,NA,NA,NA,NA,NA,NA,blau,blue,b,1,NA,NA,NA,7,10,94,b,1,0.5651117,sub-46245146
NA,NA,NA,NA,NA,NA,NA,rot,yellow,g,0,NA,NA,NA,7,11,95,g,1,0.8804877,sub-46245146
NA,NA,NA,NA,NA,NA,NA,gelb,yellow,g,1,NA,NA,NA,8,0,96,g,1,0.4678133,sub-46245146
NA,NA,NA,NA,NA,NA,NA,blau,blue,b,1,NA,NA,NA,8,1,97,b,1,0.534671,sub-46245146
NA,NA,NA,NA,NA,NA,NA,blau,red,r,0,NA,NA,NA,8,2,98,r,1,0.5616637,sub-46245146
NA,NA,NA,NA,NA,NA,NA,rot,blue,b,0,NA,NA,NA,8,3,99,b,1,0.7320015,sub-46245146
NA,NA,NA,NA,NA,NA,NA,rot,red,r,1,NA,NA,NA,8,4,100,r,1,0.7190169,sub-46245146
NA,NA,NA,NA,NA,NA,NA,blau,blue,b,1,NA,NA,NA,8,5,101,b,1,0.5434259,sub-46245146
NA,NA,NA,NA,NA,NA,NA,blau,yellow,g,0,NA,NA,NA,8,6,102,g,1,0.757983,sub-46245146
NA,NA,NA,NA,NA,NA,NA,rot,red,r,1,NA,NA,NA,8,7,103,r,1,0.4873142,sub-46245146
NA,NA,NA,NA,NA,NA,NA,gelb,blue,b,0,NA,NA,NA,8,8,104,b,1,0.9305116,sub-46245146
NA,NA,NA,NA,NA,NA,NA,rot,yellow,g,0,NA,NA,NA,8,9,105,g,1,0.8107868,sub-46245146
NA,NA,NA,NA,NA,NA,NA,gelb,yellow,g,1,NA,NA,NA,8,10,106,g,1,0.7441636,sub-46245146
NA,NA,NA,NA,NA,NA,NA,gelb,red,r,0,NA,NA,NA,8,11,107,r,1,0.57180280000000006,sub-46245146
NA,NA,NA,NA,NA,NA,NA,blau,blue,b,1,NA,NA,NA,9,0,108,b,1,0.5705015,sub-46245146
NA,NA,NA,NA,NA,NA,NA,rot,red,r,1,NA,NA,NA,9,1,109,r,1,0.5397107,sub-46245146
NA,NA,NA,NA,NA,NA,NA,rot,yellow,g,0,NA,NA,NA,9,2,110,g,1,0.7559888,sub-46245146
NA,NA,NA,NA,NA,NA,NA,gelb,yellow,g,1,NA,NA,NA,9,3,111,g,1,0.4507556,sub-46245146
NA,NA,NA,NA,NA,NA,NA,blau,blue,b,1,NA,NA,NA,9,4,112,b,1,0.5177393,sub-46245146
NA,NA,NA,NA,NA,NA,NA,blau,yellow,g,0,NA,NA,NA,9,5,113,g,1,0.8640374,sub-46245146
NA,NA,NA,NA,NA,NA,NA,gelb,yellow,g,1,NA,NA,NA,9,6,114,g,1,0.5101229,sub-46245146
NA,NA,NA,NA,NA,NA,NA,rot,blue,b,0,NA,NA,NA,9,7,115,b,1,0.7769987,sub-46245146
NA,NA,NA,NA,NA,NA,NA,gelb,blue,b,0,NA,NA,NA,9,8,116,b,1,0.6684424,sub-46245146
NA,NA,NA,NA,NA,NA,NA,blau,red,r,0,NA,NA,NA,9,9,117,r,1,1.257617,sub-46245146
NA,NA,NA,NA,NA,NA,NA,rot,red,r,1,NA,NA,NA,9,10,118,r,1,0.6815838,sub-46245146
NA,NA,NA,NA,NA,NA,NA,gelb,red,r,0,NA,NA,NA,9,11,119,r,1,0.5497103,sub-46245146
NA,NA,NA,NA,NA,NA,NA,NA,NA,NA,NA,NA,NA,NA,NA,NA,NA,NA,NA,NA,sub-46245146
