wordCTK,colorCTK,corrAnsCTK,congruentCTK,wordPractice,colorPractice,congruentPractice,word,color,corrAns,congruent,trials_practice.thisRepN,trials_practice.thisTrialN,trials_practice.thisN,trials_test.thisRepN,trials_test.thisTrialN,trials_test.thisN,keyResp_test_run.keys,keyResp_test_run.corr,keyResp_test_run.rt,participant
NA,NA,NA,NA,NA,NA,NA,NA,NA,NA,NA,NA,NA,NA,NA,NA,NA,NA,NA,NA,sub-21056633
NA,NA,NA,NA,NA,NA,NA,NA,NA,NA,NA,NA,NA,NA,NA,NA,NA,NA,NA,NA,sub-21056633
test,yellow,g,1,NA,NA,NA,NA,NA,NA,NA,NA,NA,NA,NA,NA,NA,NA,NA,NA,sub-21056633
test,blue,b,1,NA,NA,NA,NA,NA,NA,NA,NA,NA,NA,NA,NA,NA,NA,NA,NA,sub-21056633
test,red,r,1,NA,NA,NA,NA,NA,NA,NA,NA,NA,NA,NA,NA,NA,NA,NA,NA,sub-21056633
test,yellow,g,1,NA,NA,NA,NA,NA,NA,NA,NA,NA,NA,NA,NA,NA,NA,NA,NA,sub-21056633
test,red,r,1,NA,NA,NA,NA,NA,NA,NA,NA,NA,NA,NA,NA,NA,NA,NA,NA,sub-21056633
test,blue,b,1,NA,NA,NA,NA,NA,NA,NA,NA,NA,NA,NA,NA,NA,NA,NA,NA,sub-21056633
test,red,r,1,NA,NA,NA,NA,NA,NA,NA,NA,NA,NA,NA,NA,NA,NA,NA,NA,sub-21056633
test,yellow,g,1,NA,NA,NA,NA,NA,NA,NA,NA,NA,NA,NA,NA,NA,NA,NA,NA,sub-21056633
test,blue,b,1,NA,NA,NA,NA,NA,NA,NA,NA,NA,NA,NA,NA,NA,NA,NA,NA,sub-21056633
test,yellow,g,1,NA,NA,NA,NA,NA,NA,NA,NA,NA,NA,NA,NA,NA,NA,NA,NA,sub-21056633
test,red,r,1,NA,NA,NA,NA,NA,NA,NA,NA,NA,NA,NA,NA,NA,NA,NA,NA,sub-21056633
test,blue,b,1,NA,NA,NA,NA,NA,NA,NA,NA,NA,NA,NA,NA,NA,NA,NA,NA,sub-21056633
NA,NA,NA,NA,NA,NA,NA,NA,NA,NA,NA,NA,NA,NA,NA,NA,NA,NA,NA,NA,sub-21056633
NA,NA,NA,NA,gelb,yellow,1,NA,NA,NA,NA,0,0,0,NA,NA,NA,NA,NA,NA,sub-21056633
NA,NA,NA,NA,rot,red,1,NA,NA,NA,NA,0,1,1,NA,NA,NA,NA,NA,NA,sub-21056633
NA,NA,NA,NA,rot,blue,0,NA,NA,NA,NA,0,2,2,NA,NA,NA,NA,NA,NA,sub-21056633
NA,NA,NA,NA,blau,blue,1,NA,NA,NA,NA,0,3,3,NA,NA,NA,NA,NA,NA,sub-21056633
NA,NA,NA,NA,rot,yellow,0,NA,NA,NA,NA,0,4,4,NA,NA,NA,NA,NA,NA,sub-21056633
NA,NA,NA,NA,gelb,blue,0,NA,NA,NA,NA,0,5,5,NA,NA,NA,NA,NA,NA,sub-21056633
NA,NA,NA,NA,blau,yellow,0,NA,NA,NA,NA,0,6,6,NA,NA,NA,NA,NA,NA,sub-21056633
NA,NA,NA,NA,gelb,yellow,1,NA,NA,NA,NA,0,7,7,NA,NA,NA,NA,NA,NA,sub-21056633
NA,NA,NA,NA,gelb,red,0,NA,NA,NA,NA,0,8,8,NA,NA,NA,NA,NA,NA,sub-21056633
NA,NA,NA,NA,rot,red,1,NA,NA,NA,NA,0,9,9,NA,NA,NA,NA,NA,NA,sub-21056633
NA,NA,NA,NA,blau,red,0,NA,NA,NA,NA,0,10,10,NA,NA,NA,NA,NA,NA,sub-21056633
NA,NA,NA,NA,blau,blue,1,NA,NA,NA,NA,0,11,11,NA,NA,NA,NA,NA,NA,sub-21056633
NA,NA,NA,NA,gelb,red,0,NA,NA,NA,NA,1,0,12,NA,NA,NA,NA,NA,NA,sub-21056633
NA,NA,NA,NA,gelb,blue,0,NA,NA,NA,NA,1,1,13,NA,NA,NA,NA,NA,NA,sub-21056633
NA,NA,NA,NA,blau,red,0,NA,NA,NA,NA,1,2,14,NA,NA,NA,NA,NA,NA,sub-21056633
NA,NA,NA,NA,blau,blue,1,NA,NA,NA,NA,1,3,15,NA,NA,NA,NA,NA,NA,sub-21056633
NA,NA,NA,NA,gelb,yellow,1,NA,NA,NA,NA,1,4,16,NA,NA,NA,NA,NA,NA,sub-21056633
NA,NA,NA,NA,rot,yellow,0,NA,NA,NA,NA,1,5,17,NA,NA,NA,NA,NA,NA,sub-21056633
NA,NA,NA,NA,blau,yellow,0,NA,NA,NA,NA,1,6,18,NA,NA,NA,NA,NA,NA,sub-21056633
NA,NA,NA,NA,gelb,yellow,1,NA,NA,NA,NA,1,7,19,NA,NA,NA,NA,NA,NA,sub-21056633
NA,NA,NA,NA,rot,red,1,NA,NA,NA,NA,1,8,20,NA,NA,NA,NA,NA,NA,sub-21056633
NA,NA,NA,NA,rot,red,1,NA,NA,NA,NA,1,9,21,NA,NA,NA,NA,NA,NA,sub-21056633
NA,NA,NA,NA,rot,blue,0,NA,NA,NA,NA,1,10,22,NA,NA,NA,NA,NA,NA,sub-21056633
NA,NA,NA,NA,blau,blue,1,NA,NA,NA,NA,1,11,23,NA,NA,NA,NA,NA,NA,sub-21056633
NA,NA,NA,NA,NA,NA,NA,NA,NA,NA,NA,NA,NA,NA,NA,NA,NA,NA,NA,NA,sub-21056633
NA,NA,NA,NA,NA,NA,NA,blau,blue,b,1,NA,NA,NA,0,0,0,b,1,0.445503823,sub-21056633
NA,NA,NA,NA,NA,NA,NA,gelb,yellow,g,1,NA,NA,NA,0,1,1,g,1,0.632421339,sub-21056633
NA,NA,NA,NA,NA,NA,NA,blau,blue,b,1,NA,NA,NA,0,2,2,b,1,0.406258849,sub-21056633
NA,NA,NA,NA,NA,NA,NA,gelb,red,r,0,NA,NA,NA,0,3,3,g,0,0.663400966,sub-21056633
NA,NA,NA,NA,NA,NA,NA,blau,yellow,g,0,NA,NA,NA,0,4,4,g,1,0.80602258,sub-21056633
NA,NA,NA,NA,NA,NA,NA,rot,red,r,1,NA,NA,NA,0,5,5,r,1,0.302129974,sub-21056633
NA,NA,NA,NA,NA,NA,NA,gelb,yellow,g,1,NA,NA,NA,0,6,6,g,1,0.622097345,sub-21056633
NA,NA,NA,NA,NA,NA,NA,rot,yellow,g,0,NA,NA,NA,0,7,7,g,1,0.552324924,sub-21056633
NA,NA,NA,NA,NA,NA,NA,rot,blue,b,0,NA,NA,NA,0,8,8,b,1,0.501795237,sub-21056633
NA,NA,NA,NA,NA,NA,NA,gelb,blue,b,0,NA,NA,NA,0,9,9,b,1,0.352508154,sub-21056633
NA,NA,NA,NA,NA,NA,NA,rot,red,r,1,NA,NA,NA,0,10,10,r,1,0.536856428,sub-21056633
NA,NA,NA,NA,NA,NA,NA,blau,red,r,0,NA,NA,NA,0,11,11,r,1,0.345251319,sub-21056633
NA,NA,NA,NA,NA,NA,NA,blau,yellow,g,0,NA,NA,NA,1,0,12,g,1,0.551016426,sub-21056633
NA,NA,NA,NA,NA,NA,NA,blau,blue,b,1,NA,NA,NA,1,1,13,b,1,0.622755582,sub-21056633
NA,NA,NA,NA,NA,NA,NA,rot,blue,b,0,NA,NA,NA,1,2,14,b,1,0.388335219,sub-21056633
NA,NA,NA,NA,NA,NA,NA,gelb,yellow,g,1,NA,NA,NA,1,3,15,g,1,0.389941216,sub-21056633
NA,NA,NA,NA,NA,NA,NA,rot,red,r,1,NA,NA,NA,1,4,16,r,1,0.552479731,sub-21056633
NA,NA,NA,NA,NA,NA,NA,blau,red,r,0,NA,NA,NA,1,5,17,b,0,0.785064308,sub-21056633
NA,NA,NA,NA,NA,NA,NA,gelb,yellow,g,1,NA,NA,NA,1,6,18,g,1,0.883086962,sub-21056633
NA,NA,NA,NA,NA,NA,NA,rot,red,r,1,NA,NA,NA,1,7,19,r,1,0.736853037,sub-21056633
NA,NA,NA,NA,NA,NA,NA,gelb,red,r,0,NA,NA,NA,1,8,20,r,1,1.160958909,sub-21056633
NA,NA,NA,NA,NA,NA,NA,blau,blue,b,1,NA,NA,NA,1,9,21,b,1,0.581154105,sub-21056633
NA,NA,NA,NA,NA,NA,NA,gelb,blue,b,0,NA,NA,NA,1,10,22,b,1,0.445605569,sub-21056633
NA,NA,NA,NA,NA,NA,NA,rot,yellow,g,0,NA,NA,NA,1,11,23,g,1,0.882617349,sub-21056633
NA,NA,NA,NA,NA,NA,NA,blau,red,r,0,NA,NA,NA,2,0,24,r,1,0.600549063,sub-21056633
NA,NA,NA,NA,NA,NA,NA,gelb,yellow,g,1,NA,NA,NA,2,1,25,g,1,0.518845602,sub-21056633
NA,NA,NA,NA,NA,NA,NA,rot,blue,b,0,NA,NA,NA,2,2,26,b,1,0.476527591,sub-21056633
NA,NA,NA,NA,NA,NA,NA,rot,red,r,1,NA,NA,NA,2,3,27,g,0,0.664760562,sub-21056633
NA,NA,NA,NA,NA,NA,NA,gelb,blue,b,0,NA,NA,NA,2,4,28,g,0,0.68820953,sub-21056633
NA,NA,NA,NA,NA,NA,NA,blau,blue,b,1,NA,NA,NA,2,5,29,b,1,0.951366131,sub-21056633
NA,NA,NA,NA,NA,NA,NA,rot,yellow,g,0,NA,NA,NA,2,6,30,g,1,1.288220379,sub-21056633
NA,NA,NA,NA,NA,NA,NA,rot,red,r,1,NA,NA,NA,2,7,31,r,1,0.563057645,sub-21056633
NA,NA,NA,NA,NA,NA,NA,blau,blue,b,1,NA,NA,NA,2,8,32,b,1,0.603160894,sub-21056633
NA,NA,NA,NA,NA,NA,NA,gelb,yellow,g,1,NA,NA,NA,2,9,33,g,1,0.636376569,sub-21056633
NA,NA,NA,NA,NA,NA,NA,gelb,red,r,0,NA,NA,NA,2,10,34,r,1,0.973040224,sub-21056633
NA,NA,NA,NA,NA,NA,NA,blau,yellow,g,0,NA,NA,NA,2,11,35,g,1,1.049568628,sub-21056633
NA,NA,NA,NA,NA,NA,NA,rot,red,r,1,NA,NA,NA,3,0,36,r,1,0.896276007,sub-21056633
NA,NA,NA,NA,NA,NA,NA,gelb,yellow,g,1,NA,NA,NA,3,1,37,g,1,0.737437201,sub-21056633
NA,NA,NA,NA,NA,NA,NA,rot,red,r,1,NA,NA,NA,3,2,38,r,1,0.977051384,sub-21056633
NA,NA,NA,NA,NA,NA,NA,gelb,yellow,g,1,NA,NA,NA,3,3,39,g,1,0.768206198,sub-21056633
NA,NA,NA,NA,NA,NA,NA,gelb,red,r,0,NA,NA,NA,3,4,40,r,1,1.438715461,sub-21056633
NA,NA,NA,NA,NA,NA,NA,gelb,blue,b,0,NA,NA,NA,3,5,41,b,1,0.732586369,sub-21056633
NA,NA,NA,NA,NA,NA,NA,blau,yellow,g,0,NA,NA,NA,3,6,42,g,1,0.972200845,sub-21056633
NA,NA,NA,NA,NA,NA,NA,rot,yellow,g,0,NA,NA,NA,3,7,43,r,0,0.824060106,sub-21056633
NA,NA,NA,NA,NA,NA,NA,blau,blue,b,1,NA,NA,NA,3,8,44,b,1,0.535468363,sub-21056633
NA,NA,NA,NA,NA,NA,NA,rot,blue,b,0,NA,NA,NA,3,9,45,b,1,0.729354216,sub-21056633
NA,NA,NA,NA,NA,NA,NA,blau,red,r,0,NA,NA,NA,3,10,46,r,1,0.4443221,sub-21056633
NA,NA,NA,NA,NA,NA,NA,blau,blue,b,1,NA,NA,NA,3,11,47,b,1,0.623601456,sub-21056633
NA,NA,NA,NA,NA,NA,NA,rot,blue,b,0,NA,NA,NA,4,0,48,b,1,1.052080222,sub-21056633
NA,NA,NA,NA,NA,NA,NA,gelb,red,r,0,NA,NA,NA,4,1,49,r,1,1.121394676,sub-21056633
NA,NA,NA,NA,NA,NA,NA,rot,yellow,g,0,NA,NA,NA,4,2,50,g,1,0.734462953,sub-21056633
NA,NA,NA,NA,NA,NA,NA,gelb,blue,b,0,NA,NA,NA,4,3,51,b,1,0.666405861,sub-21056633
NA,NA,NA,NA,NA,NA,NA,blau,yellow,g,0,NA,NA,NA,4,4,52,g,1,0.789758142,sub-21056633
NA,NA,NA,NA,NA,NA,NA,blau,blue,b,1,NA,NA,NA,4,5,53,b,1,0.821046534,sub-21056633
NA,NA,NA,NA,NA,NA,NA,gelb,yellow,g,1,NA,NA,NA,4,6,54,g,1,0.723542182,sub-21056633
NA,NA,NA,NA,NA,NA,NA,rot,red,r,1,NA,NA,NA,4,7,55,r,1,0.795906873,sub-21056633
NA,NA,NA,NA,NA,NA,NA,rot,red,r,1,NA,NA,NA,4,8,56,r,1,1.015453678,sub-21056633
NA,NA,NA,NA,NA,NA,NA,blau,red,r,0,NA,NA,NA,4,9,57,r,1,0.906122282,sub-21056633
NA,NA,NA,NA,NA,NA,NA,gelb,yellow,g,1,NA,NA,NA,4,10,58,g,1,0.688640926,sub-21056633
NA,NA,NA,NA,NA,NA,NA,blau,blue,b,1,NA,NA,NA,4,11,59,b,1,0.668372627,sub-21056633
NA,NA,NA,NA,NA,NA,NA,gelb,red,r,0,NA,NA,NA,5,0,60,r,1,0.888799641,sub-21056633
NA,NA,NA,NA,NA,NA,NA,blau,blue,b,1,NA,NA,NA,5,1,61,b,1,0.692864234,sub-21056633
NA,NA,NA,NA,NA,NA,NA,blau,yellow,g,0,NA,NA,NA,5,2,62,b,0,2.200117534,sub-21056633
NA,NA,NA,NA,NA,NA,NA,rot,blue,b,0,NA,NA,NA,5,3,63,b,1,0.685563507,sub-21056633
NA,NA,NA,NA,NA,NA,NA,gelb,yellow,g,1,NA,NA,NA,5,4,64,g,1,0.628699351,sub-21056633
NA,NA,NA,NA,NA,NA,NA,gelb,blue,b,0,NA,NA,NA,5,5,65,b,1,1.014922732,sub-21056633
NA,NA,NA,NA,NA,NA,NA,rot,red,r,1,NA,NA,NA,5,6,66,r,1,0.587752648,sub-21056633
NA,NA,NA,NA,NA,NA,NA,rot,red,r,1,NA,NA,NA,5,7,67,r,1,0.354965952,sub-21056633
NA,NA,NA,NA,NA,NA,NA,blau,blue,b,1,NA,NA,NA,5,8,68,b,1,0.522125242,sub-21056633
NA,NA,NA,NA,NA,NA,NA,blau,red,r,0,NA,NA,NA,5,9,69,b,0,0.623752668,sub-21056633
NA,NA,NA,NA,NA,NA,NA,rot,yellow,g,0,NA,NA,NA,5,10,70,g,1,1.016474596,sub-21056633
NA,NA,NA,NA,NA,NA,NA,gelb,yellow,g,1,NA,NA,NA,5,11,71,g,1,0.940419374,sub-21056633
NA,NA,NA,NA,NA,NA,NA,rot,red,r,1,NA,NA,NA,6,0,72,r,1,0.708680714,sub-21056633
NA,NA,NA,NA,NA,NA,NA,gelb,yellow,g,1,NA,NA,NA,6,1,73,g,1,0.551462233,sub-21056633
NA,NA,NA,NA,NA,NA,NA,blau,yellow,g,0,NA,NA,NA,6,2,74,g,1,0.919162963,sub-21056633
NA,NA,NA,NA,NA,NA,NA,gelb,red,r,0,NA,NA,NA,6,3,75,r,1,0.606988744,sub-21056633
NA,NA,NA,NA,NA,NA,NA,blau,blue,b,1,NA,NA,NA,6,4,76,b,1,0.57265123,sub-21056633
NA,NA,NA,NA,NA,NA,NA,rot,yellow,g,0,NA,NA,NA,6,5,77,g,1,0.942253877,sub-21056633
NA,NA,NA,NA,NA,NA,NA,blau,blue,b,1,NA,NA,NA,6,6,78,b,1,0.817546038,sub-21056633
NA,NA,NA,NA,NA,NA,NA,gelb,blue,b,0,NA,NA,NA,6,7,79,b,1,0.431086549,sub-21056633
NA,NA,NA,NA,NA,NA,NA,blau,red,r,0,NA,NA,NA,6,8,80,r,1,0.877640932,sub-21056633
NA,NA,NA,NA,NA,NA,NA,rot,red,r,1,NA,NA,NA,6,9,81,r,1,0.735683107,sub-21056633
NA,NA,NA,NA,NA,NA,NA,gelb,yellow,g,1,NA,NA,NA,6,10,82,g,1,0.59616992,sub-21056633
NA,NA,NA,NA,NA,NA,NA,rot,blue,b,0,NA,NA,NA,6,11,83,b,1,0.829574315,sub-21056633
NA,NA,NA,NA,NA,NA,NA,gelb,blue,b,0,NA,NA,NA,7,0,84,b,1,0.415973215,sub-21056633
NA,NA,NA,NA,NA,NA,NA,blau,blue,b,1,NA,NA,NA,7,1,85,b,1,0.379256036,sub-21056633
NA,NA,NA,NA,NA,NA,NA,gelb,yellow,g,1,NA,NA,NA,7,2,86,g,1,1.005682023,sub-21056633
NA,NA,NA,NA,NA,NA,NA,rot,blue,b,0,NA,NA,NA,7,3,87,b,1,0.964758394,sub-21056633
NA,NA,NA,NA,NA,NA,NA,rot,red,r,1,NA,NA,NA,7,4,88,r,1,1.204481256,sub-21056633
NA,NA,NA,NA,NA,NA,NA,blau,blue,b,1,NA,NA,NA,7,5,89,b,1,0.551595148,sub-21056633
NA,NA,NA,NA,NA,NA,NA,blau,yellow,g,0,NA,NA,NA,7,6,90,g,1,1.031926667,sub-21056633
NA,NA,NA,NA,NA,NA,NA,rot,red,r,1,NA,NA,NA,7,7,91,r,1,0.503677836,sub-21056633
NA,NA,NA,NA,NA,NA,NA,gelb,red,r,0,NA,NA,NA,7,8,92,g,0,0.770799602,sub-21056633
NA,NA,NA,NA,NA,NA,NA,blau,red,r,0,NA,NA,NA,7,9,93,r,1,0.606574662,sub-21056633
NA,NA,NA,NA,NA,NA,NA,gelb,yellow,g,1,NA,NA,NA,7,10,94,g,1,0.957775855,sub-21056633
NA,NA,NA,NA,NA,NA,NA,rot,yellow,g,0,NA,NA,NA,7,11,95,g,1,1.347123135,sub-21056633
NA,NA,NA,NA,NA,NA,NA,blau,red,r,0,NA,NA,NA,8,0,96,r,1,1.521019813,sub-21056633
NA,NA,NA,NA,NA,NA,NA,rot,yellow,g,0,NA,NA,NA,8,1,97,g,1,1.01484146,sub-21056633
NA,NA,NA,NA,NA,NA,NA,rot,red,r,1,NA,NA,NA,8,2,98,r,1,0.869557727,sub-21056633
NA,NA,NA,NA,NA,NA,NA,rot,red,r,1,NA,NA,NA,8,3,99,r,1,1.215340941,sub-21056633
NA,NA,NA,NA,NA,NA,NA,gelb,red,r,0,NA,NA,NA,8,4,100,r,1,0.614799343,sub-21056633
NA,NA,NA,NA,NA,NA,NA,blau,blue,b,1,NA,NA,NA,8,5,101,b,1,0.810684289,sub-21056633
NA,NA,NA,NA,NA,NA,NA,gelb,yellow,g,1,NA,NA,NA,8,6,102,g,1,0.735432852,sub-21056633
NA,NA,NA,NA,NA,NA,NA,blau,blue,b,1,NA,NA,NA,8,7,103,b,1,0.611059502,sub-21056633
NA,NA,NA,NA,NA,NA,NA,gelb,yellow,g,1,NA,NA,NA,8,8,104,g,1,0.707053477,sub-21056633
NA,NA,NA,NA,NA,NA,NA,blau,yellow,g,0,NA,NA,NA,8,9,105,r,0,1.182705434,sub-21056633
NA,NA,NA,NA,NA,NA,NA,rot,blue,b,0,NA,NA,NA,8,10,106,b,1,1.151476014,sub-21056633
NA,NA,NA,NA,NA,NA,NA,gelb,blue,b,0,NA,NA,NA,8,11,107,b,1,1.41488706,sub-21056633
NA,NA,NA,NA,NA,NA,NA,rot,blue,b,0,NA,NA,NA,9,0,108,b,1,0.407296825,sub-21056633
NA,NA,NA,NA,NA,NA,NA,gelb,yellow,g,1,NA,NA,NA,9,1,109,g,1,0.646121897,sub-21056633
NA,NA,NA,NA,NA,NA,NA,gelb,blue,b,0,NA,NA,NA,9,2,110,b,1,0.692576529,sub-21056633
NA,NA,NA,NA,NA,NA,NA,gelb,red,r,0,NA,NA,NA,9,3,111,r,1,0.951149968,sub-21056633
NA,NA,NA,NA,NA,NA,NA,blau,blue,b,1,NA,NA,NA,9,4,112,b,1,0.594420289,sub-21056633
NA,NA,NA,NA,NA,NA,NA,gelb,yellow,g,1,NA,NA,NA,9,5,113,g,1,0.791394559,sub-21056633
NA,NA,NA,NA,NA,NA,NA,blau,blue,b,1,NA,NA,NA,9,6,114,b,1,0.612375706,sub-21056633
NA,NA,NA,NA,NA,NA,NA,blau,red,r,0,NA,NA,NA,9,7,115,r,1,1.014120068,sub-21056633
NA,NA,NA,NA,NA,NA,NA,rot,red,r,1,NA,NA,NA,9,8,116,r,1,0.454663728,sub-21056633
NA,NA,NA,NA,NA,NA,NA,rot,yellow,g,0,NA,NA,NA,9,9,117,g,1,0.565207246,sub-21056633
NA,NA,NA,NA,NA,NA,NA,blau,yellow,g,0,NA,NA,NA,9,10,118,g,1,0.291376472,sub-21056633
NA,NA,NA,NA,NA,NA,NA,rot,red,r,1,NA,NA,NA,9,11,119,b,0,0.419255431,sub-21056633
NA,NA,NA,NA,NA,NA,NA,NA,NA,NA,NA,NA,NA,NA,NA,NA,NA,NA,NA,NA,sub-21056633
