wordCTK,colorCTK,corrAnsCTK,congruentCTK,wordPractice,colorPractice,congruentPractice,word,color,corrAns,congruent,trials_practice.thisRepN,trials_practice.thisTrialN,trials_practice.thisN,trials_test.thisRepN,trials_test.thisTrialN,trials_test.thisN,keyResp_test_run.keys,keyResp_test_run.corr,keyResp_test_run.rt,participant
NA,NA,NA,NA,NA,NA,NA,NA,NA,NA,NA,NA,NA,NA,NA,NA,NA,NA,NA,NA,sub-44365408
NA,NA,NA,NA,NA,NA,NA,NA,NA,NA,NA,NA,NA,NA,NA,NA,NA,NA,NA,NA,sub-44365408
test,blue,b,1,NA,NA,NA,NA,NA,NA,NA,NA,NA,NA,NA,NA,NA,NA,NA,NA,sub-44365408
test,red,r,1,NA,NA,NA,NA,NA,NA,NA,NA,NA,NA,NA,NA,NA,NA,NA,NA,sub-44365408
test,yellow,g,1,NA,NA,NA,NA,NA,NA,NA,NA,NA,NA,NA,NA,NA,NA,NA,NA,sub-44365408
test,blue,b,1,NA,NA,NA,NA,NA,NA,NA,NA,NA,NA,NA,NA,NA,NA,NA,NA,sub-44365408
test,red,r,1,NA,NA,NA,NA,NA,NA,NA,NA,NA,NA,NA,NA,NA,NA,NA,NA,sub-44365408
test,yellow,g,1,NA,NA,NA,NA,NA,NA,NA,NA,NA,NA,NA,NA,NA,NA,NA,NA,sub-44365408
test,red,r,1,NA,NA,NA,NA,NA,NA,NA,NA,NA,NA,NA,NA,NA,NA,NA,NA,sub-44365408
test,blue,b,1,NA,NA,NA,NA,NA,NA,NA,NA,NA,NA,NA,NA,NA,NA,NA,NA,sub-44365408
test,yellow,g,1,NA,NA,NA,NA,NA,NA,NA,NA,NA,NA,NA,NA,NA,NA,NA,NA,sub-44365408
test,blue,b,1,NA,NA,NA,NA,NA,NA,NA,NA,NA,NA,NA,NA,NA,NA,NA,NA,sub-44365408
test,red,r,1,NA,NA,NA,NA,NA,NA,NA,NA,NA,NA,NA,NA,NA,NA,NA,NA,sub-44365408
test,yellow,g,1,NA,NA,NA,NA,NA,NA,NA,NA,NA,NA,NA,NA,NA,NA,NA,NA,sub-44365408
NA,NA,NA,NA,NA,NA,NA,NA,NA,NA,NA,NA,NA,NA,NA,NA,NA,NA,NA,NA,sub-44365408
NA,NA,NA,NA,rot,blue,0,NA,NA,NA,NA,0,0,0,NA,NA,NA,NA,NA,NA,sub-44365408
NA,NA,NA,NA,rot,red,1,NA,NA,NA,NA,0,1,1,NA,NA,NA,NA,NA,NA,sub-44365408
NA,NA,NA,NA,gelb,yellow,1,NA,NA,NA,NA,0,2,2,NA,NA,NA,NA,NA,NA,sub-44365408
NA,NA,NA,NA,gelb,red,0,NA,NA,NA,NA,0,3,3,NA,NA,NA,NA,NA,NA,sub-44365408
NA,NA,NA,NA,gelb,yellow,1,NA,NA,NA,NA,0,4,4,NA,NA,NA,NA,NA,NA,sub-44365408
NA,NA,NA,NA,blau,red,0,NA,NA,NA,NA,0,5,5,NA,NA,NA,NA,NA,NA,sub-44365408
NA,NA,NA,NA,blau,yellow,0,NA,NA,NA,NA,0,6,6,NA,NA,NA,NA,NA,NA,sub-44365408
NA,NA,NA,NA,blau,blue,1,NA,NA,NA,NA,0,7,7,NA,NA,NA,NA,NA,NA,sub-44365408
NA,NA,NA,NA,gelb,blue,0,NA,NA,NA,NA,0,8,8,NA,NA,NA,NA,NA,NA,sub-44365408
NA,NA,NA,NA,rot,yellow,0,NA,NA,NA,NA,0,9,9,NA,NA,NA,NA,NA,NA,sub-44365408
NA,NA,NA,NA,blau,blue,1,NA,NA,NA,NA,0,10,10,NA,NA,NA,NA,NA,NA,sub-44365408
NA,NA,NA,NA,rot,red,1,NA,NA,NA,NA,0,11,11,NA,NA,NA,NA,NA,NA,sub-44365408
NA,NA,NA,NA,blau,blue,1,NA,NA,NA,NA,1,0,12,NA,NA,NA,NA,NA,NA,sub-44365408
NA,NA,NA,NA,gelb,yellow,1,NA,NA,NA,NA,1,1,13,NA,NA,NA,NA,NA,NA,sub-44365408
NA,NA,NA,NA,gelb,blue,0,NA,NA,NA,NA,1,2,14,NA,NA,NA,NA,NA,NA,sub-44365408
NA,NA,NA,NA,rot,red,1,NA,NA,NA,NA,1,3,15,NA,NA,NA,NA,NA,NA,sub-44365408
NA,NA,NA,NA,blau,yellow,0,NA,NA,NA,NA,1,4,16,NA,NA,NA,NA,NA,NA,sub-44365408
NA,NA,NA,NA,rot,yellow,0,NA,NA,NA,NA,1,5,17,NA,NA,NA,NA,NA,NA,sub-44365408
NA,NA,NA,NA,rot,red,1,NA,NA,NA,NA,1,6,18,NA,NA,NA,NA,NA,NA,sub-44365408
NA,NA,NA,NA,rot,blue,0,NA,NA,NA,NA,1,7,19,NA,NA,NA,NA,NA,NA,sub-44365408
NA,NA,NA,NA,blau,blue,1,NA,NA,NA,NA,1,8,20,NA,NA,NA,NA,NA,NA,sub-44365408
NA,NA,NA,NA,gelb,red,0,NA,NA,NA,NA,1,9,21,NA,NA,NA,NA,NA,NA,sub-44365408
NA,NA,NA,NA,blau,red,0,NA,NA,NA,NA,1,10,22,NA,NA,NA,NA,NA,NA,sub-44365408
NA,NA,NA,NA,gelb,yellow,1,NA,NA,NA,NA,1,11,23,NA,NA,NA,NA,NA,NA,sub-44365408
NA,NA,NA,NA,NA,NA,NA,NA,NA,NA,NA,NA,NA,NA,NA,NA,NA,NA,NA,NA,sub-44365408
NA,NA,NA,NA,NA,NA,NA,blau,blue,b,1,NA,NA,NA,0,0,0,b,1,0.6560994,sub-44365408
NA,NA,NA,NA,NA,NA,NA,blau,yellow,g,0,NA,NA,NA,0,1,1,g,1,0.800343,sub-44365408
NA,NA,NA,NA,NA,NA,NA,rot,blue,b,0,NA,NA,NA,0,2,2,b,1,0.6031642,sub-44365408
NA,NA,NA,NA,NA,NA,NA,rot,red,r,1,NA,NA,NA,0,3,3,r,1,0.37384,sub-44365408
NA,NA,NA,NA,NA,NA,NA,rot,red,r,1,NA,NA,NA,0,4,4,r,1,0.5525213,sub-44365408
NA,NA,NA,NA,NA,NA,NA,rot,yellow,g,0,NA,NA,NA,0,5,5,g,1,0.5575237,sub-44365408
NA,NA,NA,NA,NA,NA,NA,gelb,yellow,g,1,NA,NA,NA,0,6,6,g,1,0.460175,sub-44365408
NA,NA,NA,NA,NA,NA,NA,gelb,red,r,0,NA,NA,NA,0,7,7,r,1,0.61916,sub-44365408
NA,NA,NA,NA,NA,NA,NA,blau,red,r,0,NA,NA,NA,0,8,8,r,1,0.8372306,sub-44365408
NA,NA,NA,NA,NA,NA,NA,gelb,yellow,g,1,NA,NA,NA,0,9,9,g,1,0.6049242,sub-44365408
NA,NA,NA,NA,NA,NA,NA,gelb,blue,b,0,NA,NA,NA,0,10,10,b,1,0.4909782,sub-44365408
NA,NA,NA,NA,NA,NA,NA,blau,blue,b,1,NA,NA,NA,0,11,11,b,1,0.7596497,sub-44365408
NA,NA,NA,NA,NA,NA,NA,rot,blue,b,0,NA,NA,NA,1,0,12,b,1,0.5121766,sub-44365408
NA,NA,NA,NA,NA,NA,NA,blau,yellow,g,0,NA,NA,NA,1,1,13,g,1,0.4527263,sub-44365408
NA,NA,NA,NA,NA,NA,NA,rot,yellow,g,0,NA,NA,NA,1,2,14,g,1,0.6429839,sub-44365408
NA,NA,NA,NA,NA,NA,NA,gelb,red,r,0,NA,NA,NA,1,3,15,r,1,0.5941152,sub-44365408
NA,NA,NA,NA,NA,NA,NA,blau,red,r,0,NA,NA,NA,1,4,16,r,1,0.5035073,sub-44365408
NA,NA,NA,NA,NA,NA,NA,rot,red,r,1,NA,NA,NA,1,5,17,r,1,0.5482963,sub-44365408
NA,NA,NA,NA,NA,NA,NA,rot,red,r,1,NA,NA,NA,1,6,18,r,1,0.434753,sub-44365408
NA,NA,NA,NA,NA,NA,NA,gelb,yellow,g,1,NA,NA,NA,1,7,19,g,1,0.450272,sub-44365408
NA,NA,NA,NA,NA,NA,NA,blau,blue,b,1,NA,NA,NA,1,8,20,b,1,0.6255142,sub-44365408
NA,NA,NA,NA,NA,NA,NA,gelb,yellow,g,1,NA,NA,NA,1,9,21,g,1,0.7962992,sub-44365408
NA,NA,NA,NA,NA,NA,NA,blau,blue,b,1,NA,NA,NA,1,10,22,b,1,0.5133106,sub-44365408
NA,NA,NA,NA,NA,NA,NA,gelb,blue,b,0,NA,NA,NA,1,11,23,b,1,0.4036697,sub-44365408
NA,NA,NA,NA,NA,NA,NA,rot,blue,b,0,NA,NA,NA,2,0,24,b,1,0.4398203,sub-44365408
NA,NA,NA,NA,NA,NA,NA,gelb,yellow,g,1,NA,NA,NA,2,1,25,g,1,0.5726398,sub-44365408
NA,NA,NA,NA,NA,NA,NA,blau,yellow,g,0,NA,NA,NA,2,2,26,g,1,0.5911961,sub-44365408
NA,NA,NA,NA,NA,NA,NA,rot,yellow,g,0,NA,NA,NA,2,3,27,g,1,0.4960369,sub-44365408
NA,NA,NA,NA,NA,NA,NA,gelb,red,r,0,NA,NA,NA,2,4,28,r,1,0.3957504,sub-44365408
NA,NA,NA,NA,NA,NA,NA,rot,red,r,1,NA,NA,NA,2,5,29,r,1,0.6329903,sub-44365408
NA,NA,NA,NA,NA,NA,NA,rot,red,r,1,NA,NA,NA,2,6,30,r,1,0.5520675,sub-44365408
NA,NA,NA,NA,NA,NA,NA,blau,blue,b,1,NA,NA,NA,2,7,31,b,1,0.5257349,sub-44365408
NA,NA,NA,NA,NA,NA,NA,gelb,blue,b,0,NA,NA,NA,2,8,32,b,1,0.4445471,sub-44365408
NA,NA,NA,NA,NA,NA,NA,blau,blue,b,1,NA,NA,NA,2,9,33,b,1,0.6212712,sub-44365408
NA,NA,NA,NA,NA,NA,NA,gelb,yellow,g,1,NA,NA,NA,2,10,34,g,1,0.5049599,sub-44365408
NA,NA,NA,NA,NA,NA,NA,blau,red,r,0,NA,NA,NA,2,11,35,r,1,0.6245778,sub-44365408
NA,NA,NA,NA,NA,NA,NA,rot,yellow,g,0,NA,NA,NA,3,0,36,g,1,0.5410528,sub-44365408
NA,NA,NA,NA,NA,NA,NA,rot,red,r,1,NA,NA,NA,3,1,37,r,1,0.5147051,sub-44365408
NA,NA,NA,NA,NA,NA,NA,rot,blue,b,0,NA,NA,NA,3,2,38,b,1,0.4308608,sub-44365408
NA,NA,NA,NA,NA,NA,NA,gelb,yellow,g,1,NA,NA,NA,3,3,39,g,1,0.5211682,sub-44365408
NA,NA,NA,NA,NA,NA,NA,blau,red,r,0,NA,NA,NA,3,4,40,r,1,0.4497139,sub-44365408
NA,NA,NA,NA,NA,NA,NA,blau,blue,b,1,NA,NA,NA,3,5,41,b,1,0.4538645,sub-44365408
NA,NA,NA,NA,NA,NA,NA,blau,blue,b,1,NA,NA,NA,3,6,42,b,1,0.5932293,sub-44365408
NA,NA,NA,NA,NA,NA,NA,gelb,blue,b,0,NA,NA,NA,3,7,43,b,1,0.6351442,sub-44365408
NA,NA,NA,NA,NA,NA,NA,gelb,red,r,0,NA,NA,NA,3,8,44,r,1,0.6540742,sub-44365408
NA,NA,NA,NA,NA,NA,NA,rot,red,r,1,NA,NA,NA,3,9,45,r,1,0.3345925,sub-44365408
NA,NA,NA,NA,NA,NA,NA,blau,yellow,g,0,NA,NA,NA,3,10,46,g,1,0.3819552,sub-44365408
NA,NA,NA,NA,NA,NA,NA,gelb,yellow,g,1,NA,NA,NA,3,11,47,g,1,0.4371044,sub-44365408
NA,NA,NA,NA,NA,NA,NA,rot,red,r,1,NA,NA,NA,4,0,48,r,1,0.5263946,sub-44365408
NA,NA,NA,NA,NA,NA,NA,rot,yellow,g,0,NA,NA,NA,4,1,49,g,1,0.8370847,sub-44365408
NA,NA,NA,NA,NA,NA,NA,blau,red,r,0,NA,NA,NA,4,2,50,r,1,0.6494668,sub-44365408
NA,NA,NA,NA,NA,NA,NA,gelb,yellow,g,1,NA,NA,NA,4,3,51,g,1,0.5078499,sub-44365408
NA,NA,NA,NA,NA,NA,NA,gelb,yellow,g,1,NA,NA,NA,4,4,52,g,1,0.6141209,sub-44365408
NA,NA,NA,NA,NA,NA,NA,blau,blue,b,1,NA,NA,NA,4,5,53,b,1,0.3726061,sub-44365408
NA,NA,NA,NA,NA,NA,NA,rot,blue,b,0,NA,NA,NA,4,6,54,b,1,0.3644598,sub-44365408
NA,NA,NA,NA,NA,NA,NA,blau,blue,b,1,NA,NA,NA,4,7,55,b,1,0.3621699,sub-44365408
NA,NA,NA,NA,NA,NA,NA,rot,red,r,1,NA,NA,NA,4,8,56,r,1,0.595953,sub-44365408
NA,NA,NA,NA,NA,NA,NA,gelb,blue,b,0,NA,NA,NA,4,9,57,b,1,0.6018806,sub-44365408
NA,NA,NA,NA,NA,NA,NA,gelb,red,r,0,NA,NA,NA,4,10,58,r,1,0.5445451,sub-44365408
NA,NA,NA,NA,NA,NA,NA,blau,yellow,g,0,NA,NA,NA,4,11,59,g,1,0.4154484,sub-44365408
NA,NA,NA,NA,NA,NA,NA,rot,blue,b,0,NA,NA,NA,5,0,60,b,1,0.4586924,sub-44365408
NA,NA,NA,NA,NA,NA,NA,rot,yellow,g,0,NA,NA,NA,5,1,61,g,1,0.515676,sub-44365408
NA,NA,NA,NA,NA,NA,NA,gelb,yellow,g,1,NA,NA,NA,5,2,62,g,1,0.5342837,sub-44365408
NA,NA,NA,NA,NA,NA,NA,blau,blue,b,1,NA,NA,NA,5,3,63,b,1,0.5129078,sub-44365408
NA,NA,NA,NA,NA,NA,NA,rot,red,r,1,NA,NA,NA,5,4,64,r,1,0.358934,sub-44365408
NA,NA,NA,NA,NA,NA,NA,gelb,yellow,g,1,NA,NA,NA,5,5,65,g,1,0.456353,sub-44365408
NA,NA,NA,NA,NA,NA,NA,rot,red,r,1,NA,NA,NA,5,6,66,r,1,0.3364739,sub-44365408
NA,NA,NA,NA,NA,NA,NA,gelb,red,r,0,NA,NA,NA,5,7,67,r,1,0.5273195,sub-44365408
NA,NA,NA,NA,NA,NA,NA,blau,yellow,g,0,NA,NA,NA,5,8,68,g,1,0.4536351,sub-44365408
NA,NA,NA,NA,NA,NA,NA,blau,red,r,0,NA,NA,NA,5,9,69,r,1,0.4967615,sub-44365408
NA,NA,NA,NA,NA,NA,NA,gelb,blue,b,0,NA,NA,NA,5,10,70,b,1,0.376836,sub-44365408
NA,NA,NA,NA,NA,NA,NA,blau,blue,b,1,NA,NA,NA,5,11,71,b,1,0.5635204,sub-44365408
NA,NA,NA,NA,NA,NA,NA,gelb,blue,b,0,NA,NA,NA,6,0,72,b,1,0.3664565,sub-44365408
NA,NA,NA,NA,NA,NA,NA,blau,blue,b,1,NA,NA,NA,6,1,73,b,1,0.4715589,sub-44365408
NA,NA,NA,NA,NA,NA,NA,gelb,yellow,g,1,NA,NA,NA,6,2,74,g,1,0.4625303,sub-44365408
NA,NA,NA,NA,NA,NA,NA,rot,red,r,1,NA,NA,NA,6,3,75,r,1,0.5011647,sub-44365408
NA,NA,NA,NA,NA,NA,NA,gelb,yellow,g,1,NA,NA,NA,6,4,76,g,1,0.4892572,sub-44365408
NA,NA,NA,NA,NA,NA,NA,blau,blue,b,1,NA,NA,NA,6,5,77,b,1,0.4485226,sub-44365408
NA,NA,NA,NA,NA,NA,NA,rot,blue,b,0,NA,NA,NA,6,6,78,b,1,0.4152244,sub-44365408
NA,NA,NA,NA,NA,NA,NA,rot,red,r,1,NA,NA,NA,6,7,79,r,1,0.5350963,sub-44365408
NA,NA,NA,NA,NA,NA,NA,blau,red,r,0,NA,NA,NA,6,8,80,r,1,0.4110322,sub-44365408
NA,NA,NA,NA,NA,NA,NA,rot,yellow,g,0,NA,NA,NA,6,9,81,g,1,0.5007019,sub-44365408
NA,NA,NA,NA,NA,NA,NA,gelb,red,r,0,NA,NA,NA,6,10,82,r,1,0.4867456,sub-44365408
NA,NA,NA,NA,NA,NA,NA,blau,yellow,g,0,NA,NA,NA,6,11,83,g,1,0.3764994,sub-44365408
NA,NA,NA,NA,NA,NA,NA,rot,yellow,g,0,NA,NA,NA,7,0,84,g,1,0.4335096,sub-44365408
NA,NA,NA,NA,NA,NA,NA,gelb,blue,b,0,NA,NA,NA,7,1,85,b,1,0.3252247,sub-44365408
NA,NA,NA,NA,NA,NA,NA,blau,blue,b,1,NA,NA,NA,7,2,86,b,1,0.4709943,sub-44365408
NA,NA,NA,NA,NA,NA,NA,blau,yellow,g,0,NA,NA,NA,7,3,87,g,1,0.389166,sub-44365408
NA,NA,NA,NA,NA,NA,NA,blau,blue,b,1,NA,NA,NA,7,4,88,b,1,0.4689881,sub-44365408
NA,NA,NA,NA,NA,NA,NA,gelb,yellow,g,1,NA,NA,NA,7,5,89,g,1,0.6020634,sub-44365408
NA,NA,NA,NA,NA,NA,NA,blau,red,r,0,NA,NA,NA,7,6,90,r,1,0.320344,sub-44365408
NA,NA,NA,NA,NA,NA,NA,gelb,yellow,g,1,NA,NA,NA,7,7,91,g,1,0.4779964,sub-44365408
NA,NA,NA,NA,NA,NA,NA,gelb,red,r,0,NA,NA,NA,7,8,92,r,1,0.6817056,sub-44365408
NA,NA,NA,NA,NA,NA,NA,rot,blue,b,0,NA,NA,NA,7,9,93,b,1,0.4463297,sub-44365408
NA,NA,NA,NA,NA,NA,NA,rot,red,r,1,NA,NA,NA,7,10,94,r,1,0.7153979,sub-44365408
NA,NA,NA,NA,NA,NA,NA,rot,red,r,1,NA,NA,NA,7,11,95,r,1,0.4597968,sub-44365408
NA,NA,NA,NA,NA,NA,NA,blau,yellow,g,0,NA,NA,NA,8,0,96,g,1,0.384576,sub-44365408
NA,NA,NA,NA,NA,NA,NA,blau,blue,b,1,NA,NA,NA,8,1,97,b,1,0.3125378,sub-44365408
NA,NA,NA,NA,NA,NA,NA,rot,yellow,g,0,NA,NA,NA,8,2,98,g,1,0.7470921,sub-44365408
NA,NA,NA,NA,NA,NA,NA,rot,red,r,1,NA,NA,NA,8,3,99,r,1,0.2892709,sub-44365408
NA,NA,NA,NA,NA,NA,NA,rot,blue,b,0,NA,NA,NA,8,4,100,b,1,0.5388073,sub-44365408
NA,NA,NA,NA,NA,NA,NA,blau,red,r,0,NA,NA,NA,8,5,101,r,1,0.8147483,sub-44365408
NA,NA,NA,NA,NA,NA,NA,gelb,yellow,g,1,NA,NA,NA,8,6,102,g,1,0.3904323,sub-44365408
NA,NA,NA,NA,NA,NA,NA,gelb,red,r,0,NA,NA,NA,8,7,103,r,1,0.7619173,sub-44365408
NA,NA,NA,NA,NA,NA,NA,gelb,blue,b,0,NA,NA,NA,8,8,104,b,1,0.5006107,sub-44365408
NA,NA,NA,NA,NA,NA,NA,gelb,yellow,g,1,NA,NA,NA,8,9,105,g,1,0.6040102,sub-44365408
NA,NA,NA,NA,NA,NA,NA,blau,blue,b,1,NA,NA,NA,8,10,106,b,1,0.5091075,sub-44365408
NA,NA,NA,NA,NA,NA,NA,rot,red,r,1,NA,NA,NA,8,11,107,r,1,0.4692183,sub-44365408
NA,NA,NA,NA,NA,NA,NA,gelb,blue,b,0,NA,NA,NA,9,0,108,b,1,0.5876393,sub-44365408
NA,NA,NA,NA,NA,NA,NA,gelb,yellow,g,1,NA,NA,NA,9,1,109,g,1,0.6044559,sub-44365408
NA,NA,NA,NA,NA,NA,NA,gelb,red,r,0,NA,NA,NA,9,2,110,r,1,0.5069284,sub-44365408
NA,NA,NA,NA,NA,NA,NA,blau,yellow,g,0,NA,NA,NA,9,3,111,g,1,0.4219652,sub-44365408
NA,NA,NA,NA,NA,NA,NA,rot,red,r,1,NA,NA,NA,9,4,112,r,1,0.5870654,sub-44365408
NA,NA,NA,NA,NA,NA,NA,rot,yellow,g,0,NA,NA,NA,9,5,113,g,1,0.4928931,sub-44365408
NA,NA,NA,NA,NA,NA,NA,blau,blue,b,1,NA,NA,NA,9,6,114,b,1,0.5155608,sub-44365408
NA,NA,NA,NA,NA,NA,NA,gelb,yellow,g,1,NA,NA,NA,9,7,115,g,1,0.5310699,sub-44365408
NA,NA,NA,NA,NA,NA,NA,rot,blue,b,0,NA,NA,NA,9,8,116,b,1,0.51748,sub-44365408
NA,NA,NA,NA,NA,NA,NA,rot,red,r,1,NA,NA,NA,9,9,117,r,1,0.5014568,sub-44365408
NA,NA,NA,NA,NA,NA,NA,blau,blue,b,1,NA,NA,NA,9,10,118,b,1,0.9113519,sub-44365408
NA,NA,NA,NA,NA,NA,NA,blau,red,r,0,NA,NA,NA,9,11,119,r,1,1.0234016,sub-44365408
NA,NA,NA,NA,NA,NA,NA,NA,NA,NA,NA,NA,NA,NA,NA,NA,NA,NA,NA,NA,sub-44365408
