wordCTK,colorCTK,corrAnsCTK,congruentCTK,wordPractice,colorPractice,congruentPractice,word,color,corrAns,congruent,trials_practice.thisRepN,trials_practice.thisTrialN,trials_practice.thisN,trials_test.thisRepN,trials_test.thisTrialN,trials_test.thisN,keyResp_test_run.keys,keyResp_test_run.corr,keyResp_test_run.rt,participant
NA,NA,NA,NA,NA,NA,NA,NA,NA,NA,NA,NA,NA,NA,NA,NA,NA,NA,NA,NA,sub-90222445
NA,NA,NA,NA,NA,NA,NA,NA,NA,NA,NA,NA,NA,NA,NA,NA,NA,NA,NA,NA,sub-90222445
test,yellow,g,1,NA,NA,NA,NA,NA,NA,NA,NA,NA,NA,NA,NA,NA,NA,NA,NA,sub-90222445
test,red,r,1,NA,NA,NA,NA,NA,NA,NA,NA,NA,NA,NA,NA,NA,NA,NA,NA,sub-90222445
test,blue,b,1,NA,NA,NA,NA,NA,NA,NA,NA,NA,NA,NA,NA,NA,NA,NA,NA,sub-90222445
test,yellow,g,1,NA,NA,NA,NA,NA,NA,NA,NA,NA,NA,NA,NA,NA,NA,NA,NA,sub-90222445
test,red,r,1,NA,NA,NA,NA,NA,NA,NA,NA,NA,NA,NA,NA,NA,NA,NA,NA,sub-90222445
test,blue,b,1,NA,NA,NA,NA,NA,NA,NA,NA,NA,NA,NA,NA,NA,NA,NA,NA,sub-90222445
test,yellow,g,1,NA,NA,NA,NA,NA,NA,NA,NA,NA,NA,NA,NA,NA,NA,NA,NA,sub-90222445
test,blue,b,1,NA,NA,NA,NA,NA,NA,NA,NA,NA,NA,NA,NA,NA,NA,NA,NA,sub-90222445
test,red,r,1,NA,NA,NA,NA,NA,NA,NA,NA,NA,NA,NA,NA,NA,NA,NA,NA,sub-90222445
test,yellow,g,1,NA,NA,NA,NA,NA,NA,NA,NA,NA,NA,NA,NA,NA,NA,NA,NA,sub-90222445
test,blue,b,1,NA,NA,NA,NA,NA,NA,NA,NA,NA,NA,NA,NA,NA,NA,NA,NA,sub-90222445
test,red,r,1,NA,NA,NA,NA,NA,NA,NA,NA,NA,NA,NA,NA,NA,NA,NA,NA,sub-90222445
NA,NA,NA,NA,NA,NA,NA,NA,NA,NA,NA,NA,NA,NA,NA,NA,NA,NA,NA,NA,sub-90222445
NA,NA,NA,NA,blau,yellow,0,NA,NA,NA,NA,0,0,0,NA,NA,NA,NA,NA,NA,sub-90222445
NA,NA,NA,NA,blau,blue,1,NA,NA,NA,NA,0,1,1,NA,NA,NA,NA,NA,NA,sub-90222445
NA,NA,NA,NA,gelb,red,0,NA,NA,NA,NA,0,2,2,NA,NA,NA,NA,NA,NA,sub-90222445
NA,NA,NA,NA,rot,yellow,0,NA,NA,NA,NA,0,3,3,NA,NA,NA,NA,NA,NA,sub-90222445
NA,NA,NA,NA,gelb,yellow,1,NA,NA,NA,NA,0,4,4,NA,NA,NA,NA,NA,NA,sub-90222445
NA,NA,NA,NA,rot,red,1,NA,NA,NA,NA,0,5,5,NA,NA,NA,NA,NA,NA,sub-90222445
NA,NA,NA,NA,blau,blue,1,NA,NA,NA,NA,0,6,6,NA,NA,NA,NA,NA,NA,sub-90222445
NA,NA,NA,NA,blau,red,0,NA,NA,NA,NA,0,7,7,NA,NA,NA,NA,NA,NA,sub-90222445
NA,NA,NA,NA,rot,blue,0,NA,NA,NA,NA,0,8,8,NA,NA,NA,NA,NA,NA,sub-90222445
NA,NA,NA,NA,gelb,blue,0,NA,NA,NA,NA,0,9,9,NA,NA,NA,NA,NA,NA,sub-90222445
NA,NA,NA,NA,rot,red,1,NA,NA,NA,NA,0,10,10,NA,NA,NA,NA,NA,NA,sub-90222445
NA,NA,NA,NA,gelb,yellow,1,NA,NA,NA,NA,0,11,11,NA,NA,NA,NA,NA,NA,sub-90222445
NA,NA,NA,NA,rot,red,1,NA,NA,NA,NA,1,0,12,NA,NA,NA,NA,NA,NA,sub-90222445
NA,NA,NA,NA,rot,blue,0,NA,NA,NA,NA,1,1,13,NA,NA,NA,NA,NA,NA,sub-90222445
NA,NA,NA,NA,gelb,red,0,NA,NA,NA,NA,1,2,14,NA,NA,NA,NA,NA,NA,sub-90222445
NA,NA,NA,NA,blau,yellow,0,NA,NA,NA,NA,1,3,15,NA,NA,NA,NA,NA,NA,sub-90222445
NA,NA,NA,NA,gelb,yellow,1,NA,NA,NA,NA,1,4,16,NA,NA,NA,NA,NA,NA,sub-90222445
NA,NA,NA,NA,blau,blue,1,NA,NA,NA,NA,1,5,17,NA,NA,NA,NA,NA,NA,sub-90222445
NA,NA,NA,NA,gelb,yellow,1,NA,NA,NA,NA,1,6,18,NA,NA,NA,NA,NA,NA,sub-90222445
NA,NA,NA,NA,gelb,blue,0,NA,NA,NA,NA,1,7,19,NA,NA,NA,NA,NA,NA,sub-90222445
NA,NA,NA,NA,rot,red,1,NA,NA,NA,NA,1,8,20,NA,NA,NA,NA,NA,NA,sub-90222445
NA,NA,NA,NA,rot,yellow,0,NA,NA,NA,NA,1,9,21,NA,NA,NA,NA,NA,NA,sub-90222445
NA,NA,NA,NA,blau,blue,1,NA,NA,NA,NA,1,10,22,NA,NA,NA,NA,NA,NA,sub-90222445
NA,NA,NA,NA,blau,red,0,NA,NA,NA,NA,1,11,23,NA,NA,NA,NA,NA,NA,sub-90222445
NA,NA,NA,NA,NA,NA,NA,NA,NA,NA,NA,NA,NA,NA,NA,NA,NA,NA,NA,NA,sub-90222445
NA,NA,NA,NA,NA,NA,NA,rot,blue,b,0,NA,NA,NA,0,0,0,b,1,0.5938106999965385,sub-90222445
NA,NA,NA,NA,NA,NA,NA,gelb,blue,b,0,NA,NA,NA,0,1,1,b,1,0.6093708999687806,sub-90222445
NA,NA,NA,NA,NA,NA,NA,rot,red,r,1,NA,NA,NA,0,2,2,r,1,0.30219759995816275,sub-90222445
NA,NA,NA,NA,NA,NA,NA,gelb,yellow,g,1,NA,NA,NA,0,3,3,g,1,0.499914699990768,sub-90222445
NA,NA,NA,NA,NA,NA,NA,rot,yellow,g,0,NA,NA,NA,0,4,4,g,1,0.517947299988009,sub-90222445
NA,NA,NA,NA,NA,NA,NA,blau,blue,b,1,NA,NA,NA,0,5,5,b,1,0.4842979999957606,sub-90222445
NA,NA,NA,NA,NA,NA,NA,blau,yellow,g,0,NA,NA,NA,0,6,6,g,1,0.5628944999771193,sub-90222445
NA,NA,NA,NA,NA,NA,NA,blau,blue,b,1,NA,NA,NA,0,7,7,b,1,0.4368009000318125,sub-90222445
NA,NA,NA,NA,NA,NA,NA,blau,red,r,0,NA,NA,NA,0,8,8,r,1,0.4814502000226639,sub-90222445
NA,NA,NA,NA,NA,NA,NA,gelb,red,r,0,NA,NA,NA,0,9,9,r,1,0.4301666999817826,sub-90222445
NA,NA,NA,NA,NA,NA,NA,rot,red,r,1,NA,NA,NA,0,10,10,r,1,0.5341760999872349,sub-90222445
NA,NA,NA,NA,NA,NA,NA,gelb,yellow,g,1,NA,NA,NA,0,11,11,g,1,0.44324560003587976,sub-90222445
NA,NA,NA,NA,NA,NA,NA,blau,red,r,0,NA,NA,NA,1,0,12,b,0,0.502667399996426,sub-90222445
NA,NA,NA,NA,NA,NA,NA,blau,yellow,g,0,NA,NA,NA,1,1,13,g,1,0.7809400999685749,sub-90222445
NA,NA,NA,NA,NA,NA,NA,rot,blue,b,0,NA,NA,NA,1,2,14,b,1,0.6529618999920785,sub-90222445
NA,NA,NA,NA,NA,NA,NA,rot,red,r,1,NA,NA,NA,1,3,15,r,1,0.611451200034935,sub-90222445
NA,NA,NA,NA,NA,NA,NA,gelb,yellow,g,1,NA,NA,NA,1,4,16,g,1,0.7259409999824129,sub-90222445
NA,NA,NA,NA,NA,NA,NA,rot,red,r,1,NA,NA,NA,1,5,17,r,1,0.97176230000332,sub-90222445
NA,NA,NA,NA,NA,NA,NA,blau,blue,b,1,NA,NA,NA,1,6,18,b,1,0.5341928000561893,sub-90222445
NA,NA,NA,NA,NA,NA,NA,rot,yellow,g,0,NA,NA,NA,1,7,19,g,1,0.8178358000004664,sub-90222445
NA,NA,NA,NA,NA,NA,NA,gelb,yellow,g,1,NA,NA,NA,1,8,20,g,1,0.5166183999972418,sub-90222445
NA,NA,NA,NA,NA,NA,NA,gelb,blue,b,0,NA,NA,NA,1,9,21,b,1,0.60137869999744,sub-90222445
NA,NA,NA,NA,NA,NA,NA,gelb,red,r,0,NA,NA,NA,1,10,22,r,1,0.5821011000080034,sub-90222445
NA,NA,NA,NA,NA,NA,NA,blau,blue,b,1,NA,NA,NA,1,11,23,b,1,0.7420496999984607,sub-90222445
NA,NA,NA,NA,NA,NA,NA,gelb,yellow,g,1,NA,NA,NA,2,0,24,g,1,0.7608364000334404,sub-90222445
NA,NA,NA,NA,NA,NA,NA,rot,red,r,1,NA,NA,NA,2,1,25,r,1,0.5470297000138089,sub-90222445
NA,NA,NA,NA,NA,NA,NA,rot,yellow,g,0,NA,NA,NA,2,2,26,g,1,0.6558380000060424,sub-90222445
NA,NA,NA,NA,NA,NA,NA,gelb,blue,b,0,NA,NA,NA,2,3,27,b,1,0.598883599974215,sub-90222445
NA,NA,NA,NA,NA,NA,NA,gelb,red,r,0,NA,NA,NA,2,4,28,r,1,0.5322600000072271,sub-90222445
NA,NA,NA,NA,NA,NA,NA,gelb,yellow,g,1,NA,NA,NA,2,5,29,g,1,0.6965194999938831,sub-90222445
NA,NA,NA,NA,NA,NA,NA,blau,red,r,0,NA,NA,NA,2,6,30,r,1,0.7053874999983236,sub-90222445
NA,NA,NA,NA,NA,NA,NA,rot,blue,b,0,NA,NA,NA,2,7,31,b,1,0.31588080001529306,sub-90222445
NA,NA,NA,NA,NA,NA,NA,rot,red,r,1,NA,NA,NA,2,8,32,g,0,0.4903298999997787,sub-90222445
NA,NA,NA,NA,NA,NA,NA,blau,blue,b,1,NA,NA,NA,2,9,33,b,1,0.6098610999761149,sub-90222445
NA,NA,NA,NA,NA,NA,NA,blau,yellow,g,0,NA,NA,NA,2,10,34,g,1,0.8229790999903344,sub-90222445
NA,NA,NA,NA,NA,NA,NA,blau,blue,b,1,NA,NA,NA,2,11,35,b,1,0.8030734999920242,sub-90222445
NA,NA,NA,NA,NA,NA,NA,gelb,yellow,g,1,NA,NA,NA,3,0,36,g,1,0.6295050000189804,sub-90222445
NA,NA,NA,NA,NA,NA,NA,blau,red,r,0,NA,NA,NA,3,1,37,r,1,0.6223197000217624,sub-90222445
NA,NA,NA,NA,NA,NA,NA,rot,red,r,1,NA,NA,NA,3,2,38,r,1,0.5482349999947473,sub-90222445
NA,NA,NA,NA,NA,NA,NA,blau,blue,b,1,NA,NA,NA,3,3,39,b,1,0.6198811000213027,sub-90222445
NA,NA,NA,NA,NA,NA,NA,rot,red,r,1,NA,NA,NA,3,4,40,r,1,0.7620078999898396,sub-90222445
NA,NA,NA,NA,NA,NA,NA,rot,yellow,g,0,NA,NA,NA,3,5,41,g,1,0.8064821999869309,sub-90222445
NA,NA,NA,NA,NA,NA,NA,blau,yellow,g,0,NA,NA,NA,3,6,42,g,1,0.7564176000305451,sub-90222445
NA,NA,NA,NA,NA,NA,NA,rot,blue,b,0,NA,NA,NA,3,7,43,b,1,0.8689415999688208,sub-90222445
NA,NA,NA,NA,NA,NA,NA,gelb,red,r,0,NA,NA,NA,3,8,44,r,1,0.7720371000468731,sub-90222445
NA,NA,NA,NA,NA,NA,NA,gelb,blue,b,0,NA,NA,NA,3,9,45,b,1,1.058476299978793,sub-90222445
NA,NA,NA,NA,NA,NA,NA,blau,blue,b,1,NA,NA,NA,3,10,46,b,1,0.5482568999868818,sub-90222445
NA,NA,NA,NA,NA,NA,NA,gelb,yellow,g,1,NA,NA,NA,3,11,47,g,1,0.5579488000366837,sub-90222445
NA,NA,NA,NA,NA,NA,NA,gelb,red,r,0,NA,NA,NA,4,0,48,r,1,0.5521616999758407,sub-90222445
NA,NA,NA,NA,NA,NA,NA,blau,blue,b,1,NA,NA,NA,4,1,49,b,1,0.8701455999980681,sub-90222445
NA,NA,NA,NA,NA,NA,NA,blau,blue,b,1,NA,NA,NA,4,2,50,b,1,0.4777502999641001,sub-90222445
NA,NA,NA,NA,NA,NA,NA,blau,red,r,0,NA,NA,NA,4,3,51,r,1,0.6821145999711007,sub-90222445
NA,NA,NA,NA,NA,NA,NA,rot,yellow,g,0,NA,NA,NA,4,4,52,g,1,0.45977529999800026,sub-90222445
NA,NA,NA,NA,NA,NA,NA,rot,red,r,1,NA,NA,NA,4,5,53,r,1,1.1293734000064433,sub-90222445
NA,NA,NA,NA,NA,NA,NA,gelb,yellow,g,1,NA,NA,NA,4,6,54,g,1,0.52686939999694,sub-90222445
NA,NA,NA,NA,NA,NA,NA,gelb,yellow,g,1,NA,NA,NA,4,7,55,g,1,0.729265799978748,sub-90222445
NA,NA,NA,NA,NA,NA,NA,rot,red,r,1,NA,NA,NA,4,8,56,r,1,0.5206398000009358,sub-90222445
NA,NA,NA,NA,NA,NA,NA,blau,yellow,g,0,NA,NA,NA,4,9,57,g,1,0.568114899971988,sub-90222445
NA,NA,NA,NA,NA,NA,NA,rot,blue,b,0,NA,NA,NA,4,10,58,b,1,0.40435869997600093,sub-90222445
NA,NA,NA,NA,NA,NA,NA,gelb,blue,b,0,NA,NA,NA,4,11,59,b,1,0.6217606000136584,sub-90222445
NA,NA,NA,NA,NA,NA,NA,rot,red,r,1,NA,NA,NA,5,0,60,r,1,0.3800321000162512,sub-90222445
NA,NA,NA,NA,NA,NA,NA,gelb,yellow,g,1,NA,NA,NA,5,1,61,g,1,0.47436329995980486,sub-90222445
NA,NA,NA,NA,NA,NA,NA,gelb,red,r,0,NA,NA,NA,5,2,62,r,1,1.064696199959144,sub-90222445
NA,NA,NA,NA,NA,NA,NA,blau,yellow,g,0,NA,NA,NA,5,3,63,g,1,0.5233101999619976,sub-90222445
NA,NA,NA,NA,NA,NA,NA,blau,red,r,0,NA,NA,NA,5,4,64,r,1,0.7715118000051007,sub-90222445
NA,NA,NA,NA,NA,NA,NA,blau,blue,b,1,NA,NA,NA,5,5,65,b,1,0.5076471000211313,sub-90222445
NA,NA,NA,NA,NA,NA,NA,rot,blue,b,0,NA,NA,NA,5,6,66,b,1,0.5645922999829054,sub-90222445
NA,NA,NA,NA,NA,NA,NA,gelb,yellow,g,1,NA,NA,NA,5,7,67,g,1,0.5382582999882288,sub-90222445
NA,NA,NA,NA,NA,NA,NA,blau,blue,b,1,NA,NA,NA,5,8,68,b,1,0.5328686000430025,sub-90222445
NA,NA,NA,NA,NA,NA,NA,gelb,blue,b,0,NA,NA,NA,5,9,69,b,1,1.2439998000045307,sub-90222445
NA,NA,NA,NA,NA,NA,NA,rot,red,r,1,NA,NA,NA,5,10,70,r,1,0.5279266000143252,sub-90222445
NA,NA,NA,NA,NA,NA,NA,rot,yellow,g,0,NA,NA,NA,5,11,71,g,1,0.6576823000214063,sub-90222445
NA,NA,NA,NA,NA,NA,NA,rot,yellow,g,0,NA,NA,NA,6,0,72,g,1,0.4855255999718793,sub-90222445
NA,NA,NA,NA,NA,NA,NA,blau,red,r,0,NA,NA,NA,6,1,73,r,1,0.34455109998816624,sub-90222445
NA,NA,NA,NA,NA,NA,NA,rot,red,r,1,NA,NA,NA,6,2,74,r,1,1.3268333000014536,sub-90222445
NA,NA,NA,NA,NA,NA,NA,rot,blue,b,0,NA,NA,NA,6,3,75,r,0,0.6595304000074975,sub-90222445
NA,NA,NA,NA,NA,NA,NA,gelb,red,r,0,NA,NA,NA,6,4,76,r,1,0.80828629998723045,sub-90222445
NA,NA,NA,NA,NA,NA,NA,gelb,yellow,g,1,NA,NA,NA,6,5,77,g,1,0.6754292999976315,sub-90222445
NA,NA,NA,NA,NA,NA,NA,blau,blue,b,1,NA,NA,NA,6,6,78,b,1,0.5394598999992013,sub-90222445
NA,NA,NA,NA,NA,NA,NA,gelb,yellow,g,1,NA,NA,NA,6,7,79,g,1,0.8533908000099473,sub-90222445
NA,NA,NA,NA,NA,NA,NA,gelb,blue,b,0,NA,NA,NA,6,8,80,b,1,0.6151077999966219,sub-90222445
NA,NA,NA,NA,NA,NA,NA,blau,blue,b,1,NA,NA,NA,6,9,81,b,1,0.5039270999841392,sub-90222445
NA,NA,NA,NA,NA,NA,NA,blau,yellow,g,0,NA,NA,NA,6,10,82,g,1,0.5696295999805443,sub-90222445
NA,NA,NA,NA,NA,NA,NA,rot,red,r,1,NA,NA,NA,6,11,83,r,1,1.0670978000271134,sub-90222445
NA,NA,NA,NA,NA,NA,NA,blau,yellow,g,0,NA,NA,NA,7,0,84,g,1,0.974516100017354,sub-90222445
NA,NA,NA,NA,NA,NA,NA,blau,blue,b,1,NA,NA,NA,7,1,85,b,1,0.5843741999706253,sub-90222445
NA,NA,NA,NA,NA,NA,NA,gelb,red,r,0,NA,NA,NA,7,2,86,r,1,0.6869126000092365,sub-90222445
NA,NA,NA,NA,NA,NA,NA,rot,blue,b,0,NA,NA,NA,7,3,87,b,1,0.7291607999941334,sub-90222445
NA,NA,NA,NA,NA,NA,NA,gelb,yellow,g,1,NA,NA,NA,7,4,88,g,1,0.5205942000029609,sub-90222445
NA,NA,NA,NA,NA,NA,NA,rot,red,r,1,NA,NA,NA,7,5,89,b,0,0.5865622999845073,sub-90222445
NA,NA,NA,NA,NA,NA,NA,blau,blue,b,1,NA,NA,NA,7,6,90,b,1,0.5609031000058167,sub-90222445
NA,NA,NA,NA,NA,NA,NA,blau,red,r,0,NA,NA,NA,7,7,91,r,1,0.4751605999772437,sub-90222445
NA,NA,NA,NA,NA,NA,NA,rot,yellow,g,0,NA,NA,NA,7,8,92,g,1,0.32484309998108074,sub-90222445
NA,NA,NA,NA,NA,NA,NA,gelb,yellow,g,1,NA,NA,NA,7,9,93,g,1,0.5003074000123888,sub-90222445
NA,NA,NA,NA,NA,NA,NA,rot,red,r,1,NA,NA,NA,7,10,94,r,1,0.4741883999668062,sub-90222445
NA,NA,NA,NA,NA,NA,NA,gelb,blue,b,0,NA,NA,NA,7,11,95,b,1,0.639889000041876,sub-90222445
NA,NA,NA,NA,NA,NA,NA,gelb,yellow,g,1,NA,NA,NA,8,0,96,g,1,0.605240699951537,sub-90222445
NA,NA,NA,NA,NA,NA,NA,gelb,red,r,0,NA,NA,NA,8,1,97,r,1,0.9893091000267304,sub-90222445
NA,NA,NA,NA,NA,NA,NA,rot,yellow,g,0,NA,NA,NA,8,2,98,g,1,0.7967770000104792,sub-90222445
NA,NA,NA,NA,NA,NA,NA,rot,red,r,1,NA,NA,NA,8,3,99,r,1,0.5942316000000574,sub-90222445
NA,NA,NA,NA,NA,NA,NA,blau,blue,b,1,NA,NA,NA,8,4,100,b,1,0.39638540003215894,sub-90222445
NA,NA,NA,NA,NA,NA,NA,rot,red,r,1,NA,NA,NA,8,5,101,r,1,0.8004157000104897,sub-90222445
NA,NA,NA,NA,NA,NA,NA,blau,yellow,g,0,NA,NA,NA,8,6,102,g,1,0.767573999997694,sub-90222445
NA,NA,NA,NA,NA,NA,NA,gelb,yellow,g,1,NA,NA,NA,8,7,103,g,1,0.47268060001078993,sub-90222445
NA,NA,NA,NA,NA,NA,NA,blau,blue,b,1,NA,NA,NA,8,8,104,b,1,0.5336139000137337,sub-90222445
NA,NA,NA,NA,NA,NA,NA,rot,blue,b,0,NA,NA,NA,8,9,105,b,1,0.9249599000322632,sub-90222445
NA,NA,NA,NA,NA,NA,NA,gelb,blue,b,0,NA,NA,NA,8,10,106,b,1,0.6734791999915615,sub-90222445
NA,NA,NA,NA,NA,NA,NA,blau,red,r,0,NA,NA,NA,8,11,107,r,1,0.6865557000273839,sub-90222445
NA,NA,NA,NA,NA,NA,NA,gelb,blue,b,0,NA,NA,NA,9,0,108,b,1,0.9548566999728793,sub-90222445
NA,NA,NA,NA,NA,NA,NA,rot,yellow,g,0,NA,NA,NA,9,1,109,g,1,0.6599717999924906,sub-90222445
NA,NA,NA,NA,NA,NA,NA,rot,red,r,1,NA,NA,NA,9,2,110,r,1,0.5925867999903858,sub-90222445
NA,NA,NA,NA,NA,NA,NA,blau,blue,b,1,NA,NA,NA,9,3,111,b,1,0.7117255000048317,sub-90222445
NA,NA,NA,NA,NA,NA,NA,blau,yellow,g,0,NA,NA,NA,9,4,112,g,1,0.6500994999660179,sub-90222445
NA,NA,NA,NA,NA,NA,NA,rot,blue,b,0,NA,NA,NA,9,5,113,b,1,0.5448146999697201,sub-90222445
NA,NA,NA,NA,NA,NA,NA,gelb,yellow,g,1,NA,NA,NA,9,6,114,g,1,0.6365601999568753,sub-90222445
NA,NA,NA,NA,NA,NA,NA,blau,blue,b,1,NA,NA,NA,9,7,115,b,1,0.8718499999959022,sub-90222445
NA,NA,NA,NA,NA,NA,NA,gelb,yellow,g,1,NA,NA,NA,9,8,116,g,1,1.0112225000048056,sub-90222445
NA,NA,NA,NA,NA,NA,NA,rot,red,r,1,NA,NA,NA,9,9,117,r,1,0.28995030000805855,sub-90222445
NA,NA,NA,NA,NA,NA,NA,blau,red,r,0,NA,NA,NA,9,10,118,r,1,0.6380420999485068,sub-90222445
NA,NA,NA,NA,NA,NA,NA,gelb,red,r,0,NA,NA,NA,9,11,119,r,1,0.6075505000189878,sub-90222445
NA,NA,NA,NA,NA,NA,NA,NA,NA,NA,NA,NA,NA,NA,NA,NA,NA,NA,NA,NA,sub-90222445
