wordCTK,colorCTK,corrAnsCTK,congruentCTK,wordPractice,colorPractice,congruentPractice,word,color,corrAns,congruent,trials_practice.thisRepN,trials_practice.thisTrialN,trials_practice.thisN,trials_test.thisRepN,trials_test.thisTrialN,trials_test.thisN,keyResp_test_run.keys,keyResp_test_run.corr,keyResp_test_run.rt,participant
NA,NA,NA,NA,NA,NA,NA,NA,NA,NA,NA,NA,NA,NA,NA,NA,NA,NA,NA,NA,sub-53081657
NA,NA,NA,NA,NA,NA,NA,NA,NA,NA,NA,NA,NA,NA,NA,NA,NA,NA,NA,NA,sub-53081657
test,blue,b,1,NA,NA,NA,NA,NA,NA,NA,NA,NA,NA,NA,NA,NA,NA,NA,NA,sub-53081657
test,red,r,1,NA,NA,NA,NA,NA,NA,NA,NA,NA,NA,NA,NA,NA,NA,NA,NA,sub-53081657
test,yellow,g,1,NA,NA,NA,NA,NA,NA,NA,NA,NA,NA,NA,NA,NA,NA,NA,NA,sub-53081657
test,red,r,1,NA,NA,NA,NA,NA,NA,NA,NA,NA,NA,NA,NA,NA,NA,NA,NA,sub-53081657
test,blue,b,1,NA,NA,NA,NA,NA,NA,NA,NA,NA,NA,NA,NA,NA,NA,NA,NA,sub-53081657
test,yellow,g,1,NA,NA,NA,NA,NA,NA,NA,NA,NA,NA,NA,NA,NA,NA,NA,NA,sub-53081657
test,yellow,g,1,NA,NA,NA,NA,NA,NA,NA,NA,NA,NA,NA,NA,NA,NA,NA,NA,sub-53081657
test,blue,b,1,NA,NA,NA,NA,NA,NA,NA,NA,NA,NA,NA,NA,NA,NA,NA,NA,sub-53081657
test,red,r,1,NA,NA,NA,NA,NA,NA,NA,NA,NA,NA,NA,NA,NA,NA,NA,NA,sub-53081657
test,yellow,g,1,NA,NA,NA,NA,NA,NA,NA,NA,NA,NA,NA,NA,NA,NA,NA,NA,sub-53081657
test,blue,b,1,NA,NA,NA,NA,NA,NA,NA,NA,NA,NA,NA,NA,NA,NA,NA,NA,sub-53081657
test,red,r,1,NA,NA,NA,NA,NA,NA,NA,NA,NA,NA,NA,NA,NA,NA,NA,NA,sub-53081657
NA,NA,NA,NA,NA,NA,NA,NA,NA,NA,NA,NA,NA,NA,NA,NA,NA,NA,NA,NA,sub-53081657
NA,NA,NA,NA,gelb,yellow,1,NA,NA,NA,NA,0,0,0,NA,NA,NA,NA,NA,NA,sub-53081657
NA,NA,NA,NA,gelb,blue,0,NA,NA,NA,NA,0,1,1,NA,NA,NA,NA,NA,NA,sub-53081657
NA,NA,NA,NA,blau,red,0,NA,NA,NA,NA,0,2,2,NA,NA,NA,NA,NA,NA,sub-53081657
NA,NA,NA,NA,blau,blue,1,NA,NA,NA,NA,0,3,3,NA,NA,NA,NA,NA,NA,sub-53081657
NA,NA,NA,NA,gelb,yellow,1,NA,NA,NA,NA,0,4,4,NA,NA,NA,NA,NA,NA,sub-53081657
NA,NA,NA,NA,blau,blue,1,NA,NA,NA,NA,0,5,5,NA,NA,NA,NA,NA,NA,sub-53081657
NA,NA,NA,NA,gelb,red,0,NA,NA,NA,NA,0,6,6,NA,NA,NA,NA,NA,NA,sub-53081657
NA,NA,NA,NA,blau,yellow,0,NA,NA,NA,NA,0,7,7,NA,NA,NA,NA,NA,NA,sub-53081657
NA,NA,NA,NA,rot,yellow,0,NA,NA,NA,NA,0,8,8,NA,NA,NA,NA,NA,NA,sub-53081657
NA,NA,NA,NA,rot,blue,0,NA,NA,NA,NA,0,9,9,NA,NA,NA,NA,NA,NA,sub-53081657
NA,NA,NA,NA,rot,red,1,NA,NA,NA,NA,0,10,10,NA,NA,NA,NA,NA,NA,sub-53081657
NA,NA,NA,NA,rot,red,1,NA,NA,NA,NA,0,11,11,NA,NA,NA,NA,NA,NA,sub-53081657
NA,NA,NA,NA,gelb,red,0,NA,NA,NA,NA,1,0,12,NA,NA,NA,NA,NA,NA,sub-53081657
NA,NA,NA,NA,blau,yellow,0,NA,NA,NA,NA,1,1,13,NA,NA,NA,NA,NA,NA,sub-53081657
NA,NA,NA,NA,rot,yellow,0,NA,NA,NA,NA,1,2,14,NA,NA,NA,NA,NA,NA,sub-53081657
NA,NA,NA,NA,gelb,yellow,1,NA,NA,NA,NA,1,3,15,NA,NA,NA,NA,NA,NA,sub-53081657
NA,NA,NA,NA,blau,blue,1,NA,NA,NA,NA,1,4,16,NA,NA,NA,NA,NA,NA,sub-53081657
NA,NA,NA,NA,blau,red,0,NA,NA,NA,NA,1,5,17,NA,NA,NA,NA,NA,NA,sub-53081657
NA,NA,NA,NA,rot,red,1,NA,NA,NA,NA,1,6,18,NA,NA,NA,NA,NA,NA,sub-53081657
NA,NA,NA,NA,gelb,yellow,1,NA,NA,NA,NA,1,7,19,NA,NA,NA,NA,NA,NA,sub-53081657
NA,NA,NA,NA,rot,red,1,NA,NA,NA,NA,1,8,20,NA,NA,NA,NA,NA,NA,sub-53081657
NA,NA,NA,NA,blau,blue,1,NA,NA,NA,NA,1,9,21,NA,NA,NA,NA,NA,NA,sub-53081657
NA,NA,NA,NA,gelb,blue,0,NA,NA,NA,NA,1,10,22,NA,NA,NA,NA,NA,NA,sub-53081657
NA,NA,NA,NA,rot,blue,0,NA,NA,NA,NA,1,11,23,NA,NA,NA,NA,NA,NA,sub-53081657
NA,NA,NA,NA,NA,NA,NA,NA,NA,NA,NA,NA,NA,NA,NA,NA,NA,NA,NA,NA,sub-53081657
NA,NA,NA,NA,NA,NA,NA,blau,blue,b,1,NA,NA,NA,0,0,0,b,1,0.4563595,sub-53081657
NA,NA,NA,NA,NA,NA,NA,blau,yellow,g,0,NA,NA,NA,0,1,1,g,1,0.615292599,sub-53081657
NA,NA,NA,NA,NA,NA,NA,rot,yellow,g,0,NA,NA,NA,0,2,2,g,1,0.5451806,sub-53081657
NA,NA,NA,NA,NA,NA,NA,gelb,red,r,0,NA,NA,NA,0,3,3,r,1,0.609157499,sub-53081657
NA,NA,NA,NA,NA,NA,NA,gelb,yellow,g,1,NA,NA,NA,0,4,4,g,1,0.7776706,sub-53081657
NA,NA,NA,NA,NA,NA,NA,rot,red,r,1,NA,NA,NA,0,5,5,r,1,0.4758614,sub-53081657
NA,NA,NA,NA,NA,NA,NA,gelb,yellow,g,1,NA,NA,NA,0,6,6,g,1,0.460753601,sub-53081657
NA,NA,NA,NA,NA,NA,NA,rot,blue,b,0,NA,NA,NA,0,7,7,b,1,0.668798001,sub-53081657
NA,NA,NA,NA,NA,NA,NA,rot,red,r,1,NA,NA,NA,0,8,8,r,1,0.4458599,sub-53081657
NA,NA,NA,NA,NA,NA,NA,blau,blue,b,1,NA,NA,NA,0,9,9,b,1,0.474967899,sub-53081657
NA,NA,NA,NA,NA,NA,NA,blau,red,r,0,NA,NA,NA,0,10,10,r,1,0.5580801,sub-53081657
NA,NA,NA,NA,NA,NA,NA,gelb,blue,b,0,NA,NA,NA,0,11,11,b,1,0.7230836,sub-53081657
NA,NA,NA,NA,NA,NA,NA,blau,blue,b,1,NA,NA,NA,1,0,12,b,1,0.5000198,sub-53081657
NA,NA,NA,NA,NA,NA,NA,gelb,red,r,0,NA,NA,NA,1,1,13,r,1,0.585875401,sub-53081657
NA,NA,NA,NA,NA,NA,NA,blau,red,r,0,NA,NA,NA,1,2,14,r,1,0.6374126,sub-53081657
NA,NA,NA,NA,NA,NA,NA,rot,red,r,1,NA,NA,NA,1,3,15,r,1,0.415685,sub-53081657
NA,NA,NA,NA,NA,NA,NA,gelb,yellow,g,1,NA,NA,NA,1,4,16,g,1,0.662765499,sub-53081657
NA,NA,NA,NA,NA,NA,NA,blau,blue,b,1,NA,NA,NA,1,5,17,b,1,0.509139599,sub-53081657
NA,NA,NA,NA,NA,NA,NA,blau,yellow,g,0,NA,NA,NA,1,6,18,r,0,0.5483234,sub-53081657
NA,NA,NA,NA,NA,NA,NA,rot,yellow,g,0,NA,NA,NA,1,7,19,g,1,0.730791401,sub-53081657
NA,NA,NA,NA,NA,NA,NA,gelb,blue,b,0,NA,NA,NA,1,8,20,b,1,0.573279001,sub-53081657
NA,NA,NA,NA,NA,NA,NA,rot,red,r,1,NA,NA,NA,1,9,21,r,1,0.614788299,sub-53081657
NA,NA,NA,NA,NA,NA,NA,rot,blue,b,0,NA,NA,NA,1,10,22,b,1,0.661641302,sub-53081657
NA,NA,NA,NA,NA,NA,NA,gelb,yellow,g,1,NA,NA,NA,1,11,23,g,1,0.593132501,sub-53081657
NA,NA,NA,NA,NA,NA,NA,blau,yellow,g,0,NA,NA,NA,2,0,24,g,1,0.5077048,sub-53081657
NA,NA,NA,NA,NA,NA,NA,gelb,yellow,g,1,NA,NA,NA,2,1,25,g,1,0.4541799,sub-53081657
NA,NA,NA,NA,NA,NA,NA,rot,blue,b,0,NA,NA,NA,2,2,26,b,1,0.524821501,sub-53081657
NA,NA,NA,NA,NA,NA,NA,gelb,red,r,0,NA,NA,NA,2,3,27,r,1,0.644790601,sub-53081657
NA,NA,NA,NA,NA,NA,NA,blau,red,r,0,NA,NA,NA,2,4,28,r,1,0.523740798,sub-53081657
NA,NA,NA,NA,NA,NA,NA,rot,red,r,1,NA,NA,NA,2,5,29,r,1,0.612012099,sub-53081657
NA,NA,NA,NA,NA,NA,NA,gelb,yellow,g,1,NA,NA,NA,2,6,30,g,1,0.5675308,sub-53081657
NA,NA,NA,NA,NA,NA,NA,blau,blue,b,1,NA,NA,NA,2,7,31,b,1,0.624968199,sub-53081657
NA,NA,NA,NA,NA,NA,NA,gelb,blue,b,0,NA,NA,NA,2,8,32,b,1,0.753192399,sub-53081657
NA,NA,NA,NA,NA,NA,NA,blau,blue,b,1,NA,NA,NA,2,9,33,b,1,0.5498378,sub-53081657
NA,NA,NA,NA,NA,NA,NA,rot,red,r,1,NA,NA,NA,2,10,34,r,1,0.6797159,sub-53081657
NA,NA,NA,NA,NA,NA,NA,rot,yellow,g,0,NA,NA,NA,2,11,35,g,1,0.5872005,sub-53081657
NA,NA,NA,NA,NA,NA,NA,blau,blue,b,1,NA,NA,NA,3,0,36,b,1,0.556939499,sub-53081657
NA,NA,NA,NA,NA,NA,NA,blau,blue,b,1,NA,NA,NA,3,1,37,b,1,0.422259102,sub-53081657
NA,NA,NA,NA,NA,NA,NA,rot,yellow,g,0,NA,NA,NA,3,2,38,g,1,0.7210012,sub-53081657
NA,NA,NA,NA,NA,NA,NA,blau,red,r,0,NA,NA,NA,3,3,39,r,1,0.612144001,sub-53081657
NA,NA,NA,NA,NA,NA,NA,gelb,yellow,g,1,NA,NA,NA,3,4,40,g,1,0.6241122,sub-53081657
NA,NA,NA,NA,NA,NA,NA,gelb,red,r,0,NA,NA,NA,3,5,41,r,1,0.7517152,sub-53081657
NA,NA,NA,NA,NA,NA,NA,gelb,yellow,g,1,NA,NA,NA,3,6,42,g,1,0.5451601,sub-53081657
NA,NA,NA,NA,NA,NA,NA,rot,red,r,1,NA,NA,NA,3,7,43,r,1,0.4936851,sub-53081657
NA,NA,NA,NA,NA,NA,NA,rot,red,r,1,NA,NA,NA,3,8,44,b,0,0.470815901,sub-53081657
NA,NA,NA,NA,NA,NA,NA,gelb,blue,b,0,NA,NA,NA,3,9,45,b,1,0.582784399,sub-53081657
NA,NA,NA,NA,NA,NA,NA,rot,blue,b,0,NA,NA,NA,3,10,46,b,1,0.874732701,sub-53081657
NA,NA,NA,NA,NA,NA,NA,blau,yellow,g,0,NA,NA,NA,3,11,47,g,1,0.886925802,sub-53081657
NA,NA,NA,NA,NA,NA,NA,blau,red,r,0,NA,NA,NA,4,0,48,r,1,0.697013101,sub-53081657
NA,NA,NA,NA,NA,NA,NA,rot,blue,b,0,NA,NA,NA,4,1,49,b,1,0.6144365,sub-53081657
NA,NA,NA,NA,NA,NA,NA,blau,yellow,g,0,NA,NA,NA,4,2,50,g,1,0.6681656,sub-53081657
NA,NA,NA,NA,NA,NA,NA,rot,yellow,g,0,NA,NA,NA,4,3,51,g,1,0.522630101,sub-53081657
NA,NA,NA,NA,NA,NA,NA,blau,blue,b,1,NA,NA,NA,4,4,52,b,1,0.525790999,sub-53081657
NA,NA,NA,NA,NA,NA,NA,gelb,blue,b,0,NA,NA,NA,4,5,53,b,1,0.4330658,sub-53081657
NA,NA,NA,NA,NA,NA,NA,gelb,yellow,g,1,NA,NA,NA,4,6,54,g,1,0.5551372,sub-53081657
NA,NA,NA,NA,NA,NA,NA,rot,red,r,1,NA,NA,NA,4,7,55,r,1,0.555917101,sub-53081657
NA,NA,NA,NA,NA,NA,NA,blau,blue,b,1,NA,NA,NA,4,8,56,g,0,0.5293737,sub-53081657
NA,NA,NA,NA,NA,NA,NA,gelb,red,r,0,NA,NA,NA,4,9,57,r,1,0.852664599,sub-53081657
NA,NA,NA,NA,NA,NA,NA,rot,red,r,1,NA,NA,NA,4,10,58,r,1,0.6919882,sub-53081657
NA,NA,NA,NA,NA,NA,NA,gelb,yellow,g,1,NA,NA,NA,4,11,59,g,1,0.597684799,sub-53081657
NA,NA,NA,NA,NA,NA,NA,rot,blue,b,0,NA,NA,NA,5,0,60,b,1,0.529568899,sub-53081657
NA,NA,NA,NA,NA,NA,NA,blau,red,r,0,NA,NA,NA,5,1,61,r,1,0.844877001,sub-53081657
NA,NA,NA,NA,NA,NA,NA,gelb,red,r,0,NA,NA,NA,5,2,62,r,1,0.596409502,sub-53081657
NA,NA,NA,NA,NA,NA,NA,gelb,blue,b,0,NA,NA,NA,5,3,63,b,1,0.5404738,sub-53081657
NA,NA,NA,NA,NA,NA,NA,gelb,yellow,g,1,NA,NA,NA,5,4,64,g,1,0.481836,sub-53081657
NA,NA,NA,NA,NA,NA,NA,blau,blue,b,1,NA,NA,NA,5,5,65,b,1,0.578322699,sub-53081657
NA,NA,NA,NA,NA,NA,NA,blau,yellow,g,0,NA,NA,NA,5,6,66,g,1,0.5641574,sub-53081657
NA,NA,NA,NA,NA,NA,NA,rot,red,r,1,NA,NA,NA,5,7,67,r,1,0.5297102,sub-53081657
NA,NA,NA,NA,NA,NA,NA,blau,blue,b,1,NA,NA,NA,5,8,68,b,1,0.9433934,sub-53081657
NA,NA,NA,NA,NA,NA,NA,rot,red,r,1,NA,NA,NA,5,9,69,r,1,0.5237629,sub-53081657
NA,NA,NA,NA,NA,NA,NA,rot,yellow,g,0,NA,NA,NA,5,10,70,g,1,0.518382601,sub-53081657
NA,NA,NA,NA,NA,NA,NA,gelb,yellow,g,1,NA,NA,NA,5,11,71,g,1,0.527449101,sub-53081657
NA,NA,NA,NA,NA,NA,NA,blau,blue,b,1,NA,NA,NA,6,0,72,b,1,0.4685995,sub-53081657
NA,NA,NA,NA,NA,NA,NA,rot,red,r,1,NA,NA,NA,6,1,73,r,1,0.6113161,sub-53081657
NA,NA,NA,NA,NA,NA,NA,gelb,yellow,g,1,NA,NA,NA,6,2,74,g,1,0.7293911,sub-53081657
NA,NA,NA,NA,NA,NA,NA,rot,red,r,1,NA,NA,NA,6,3,75,r,1,0.581033301,sub-53081657
NA,NA,NA,NA,NA,NA,NA,blau,red,r,0,NA,NA,NA,6,4,76,r,1,1.2043218,sub-53081657
NA,NA,NA,NA,NA,NA,NA,gelb,blue,b,0,NA,NA,NA,6,5,77,b,1,0.615523599,sub-53081657
NA,NA,NA,NA,NA,NA,NA,gelb,yellow,g,1,NA,NA,NA,6,6,78,g,1,0.706140701,sub-53081657
NA,NA,NA,NA,NA,NA,NA,blau,yellow,g,0,NA,NA,NA,6,7,79,g,1,0.489387801,sub-53081657
NA,NA,NA,NA,NA,NA,NA,rot,blue,b,0,NA,NA,NA,6,8,80,b,1,0.506067799,sub-53081657
NA,NA,NA,NA,NA,NA,NA,gelb,red,r,0,NA,NA,NA,6,9,81,r,1,0.6199774,sub-53081657
NA,NA,NA,NA,NA,NA,NA,rot,yellow,g,0,NA,NA,NA,6,10,82,g,1,0.778262598,sub-53081657
NA,NA,NA,NA,NA,NA,NA,blau,blue,b,1,NA,NA,NA,6,11,83,b,1,0.5679032,sub-53081657
NA,NA,NA,NA,NA,NA,NA,blau,yellow,g,0,NA,NA,NA,7,0,84,g,1,0.941528501,sub-53081657
NA,NA,NA,NA,NA,NA,NA,gelb,red,r,0,NA,NA,NA,7,1,85,r,1,0.617841098,sub-53081657
NA,NA,NA,NA,NA,NA,NA,rot,red,r,1,NA,NA,NA,7,2,86,r,1,0.463103,sub-53081657
NA,NA,NA,NA,NA,NA,NA,gelb,yellow,g,1,NA,NA,NA,7,3,87,g,1,0.4511963,sub-53081657
NA,NA,NA,NA,NA,NA,NA,blau,blue,b,1,NA,NA,NA,7,4,88,b,1,0.661875799,sub-53081657
NA,NA,NA,NA,NA,NA,NA,gelb,blue,b,0,NA,NA,NA,7,5,89,b,1,0.5184296,sub-53081657
NA,NA,NA,NA,NA,NA,NA,gelb,yellow,g,1,NA,NA,NA,7,6,90,g,1,0.6315323,sub-53081657
NA,NA,NA,NA,NA,NA,NA,rot,yellow,g,0,NA,NA,NA,7,7,91,g,1,0.4431358,sub-53081657
NA,NA,NA,NA,NA,NA,NA,blau,red,r,0,NA,NA,NA,7,8,92,r,1,0.633619299,sub-53081657
NA,NA,NA,NA,NA,NA,NA,rot,blue,b,0,NA,NA,NA,7,9,93,b,1,0.510123799,sub-53081657
NA,NA,NA,NA,NA,NA,NA,rot,red,r,1,NA,NA,NA,7,10,94,r,1,0.651489001,sub-53081657
NA,NA,NA,NA,NA,NA,NA,blau,blue,b,1,NA,NA,NA,7,11,95,b,1,0.5659013,sub-53081657
NA,NA,NA,NA,NA,NA,NA,rot,red,r,1,NA,NA,NA,8,0,96,r,1,0.502994301,sub-53081657
NA,NA,NA,NA,NA,NA,NA,rot,blue,b,0,NA,NA,NA,8,1,97,b,1,0.581230599,sub-53081657
NA,NA,NA,NA,NA,NA,NA,blau,blue,b,1,NA,NA,NA,8,2,98,b,1,0.4324558,sub-53081657
NA,NA,NA,NA,NA,NA,NA,blau,yellow,g,0,NA,NA,NA,8,3,99,g,1,0.6289542,sub-53081657
NA,NA,NA,NA,NA,NA,NA,gelb,yellow,g,1,NA,NA,NA,8,4,100,g,1,0.541370399,sub-53081657
NA,NA,NA,NA,NA,NA,NA,gelb,blue,b,0,NA,NA,NA,8,5,101,b,1,0.5843984,sub-53081657
NA,NA,NA,NA,NA,NA,NA,gelb,red,r,0,NA,NA,NA,8,6,102,r,1,0.878041899,sub-53081657
NA,NA,NA,NA,NA,NA,NA,rot,red,r,1,NA,NA,NA,8,7,103,r,1,0.539302999,sub-53081657
NA,NA,NA,NA,NA,NA,NA,rot,yellow,g,0,NA,NA,NA,8,8,104,g,1,0.5704829,sub-53081657
NA,NA,NA,NA,NA,NA,NA,blau,red,r,0,NA,NA,NA,8,9,105,r,1,0.853094799,sub-53081657
NA,NA,NA,NA,NA,NA,NA,gelb,yellow,g,1,NA,NA,NA,8,10,106,g,1,0.945798799,sub-53081657
NA,NA,NA,NA,NA,NA,NA,blau,blue,b,1,NA,NA,NA,8,11,107,b,1,0.5185801,sub-53081657
NA,NA,NA,NA,NA,NA,NA,gelb,red,r,0,NA,NA,NA,9,0,108,r,1,0.885789601,sub-53081657
NA,NA,NA,NA,NA,NA,NA,blau,blue,b,1,NA,NA,NA,9,1,109,b,1,0.696683999,sub-53081657
NA,NA,NA,NA,NA,NA,NA,gelb,yellow,g,1,NA,NA,NA,9,2,110,r,0,1.013526101,sub-53081657
NA,NA,NA,NA,NA,NA,NA,rot,yellow,g,0,NA,NA,NA,9,3,111,g,1,0.4526242,sub-53081657
NA,NA,NA,NA,NA,NA,NA,rot,red,r,1,NA,NA,NA,9,4,112,r,1,0.5643628,sub-53081657
NA,NA,NA,NA,NA,NA,NA,gelb,blue,b,0,NA,NA,NA,9,5,113,b,1,0.4809864,sub-53081657
NA,NA,NA,NA,NA,NA,NA,blau,yellow,g,0,NA,NA,NA,9,6,114,g,1,0.8266523,sub-53081657
NA,NA,NA,NA,NA,NA,NA,rot,blue,b,0,NA,NA,NA,9,7,115,b,1,0.5776529,sub-53081657
NA,NA,NA,NA,NA,NA,NA,blau,red,r,0,NA,NA,NA,9,8,116,r,1,0.567849301,sub-53081657
NA,NA,NA,NA,NA,NA,NA,gelb,yellow,g,1,NA,NA,NA,9,9,117,g,1,0.5501431,sub-53081657
NA,NA,NA,NA,NA,NA,NA,blau,blue,b,1,NA,NA,NA,9,10,118,b,1,0.6271492,sub-53081657
NA,NA,NA,NA,NA,NA,NA,rot,red,r,1,NA,NA,NA,9,11,119,r,1,0.367914001,sub-53081657
NA,NA,NA,NA,NA,NA,NA,NA,NA,NA,NA,NA,NA,NA,NA,NA,NA,NA,NA,NA,sub-53081657
