wordCTK,colorCTK,corrAnsCTK,congruentCTK,wordPractice,colorPractice,congruentPractice,word,color,corrAns,congruent,trials_practice.thisRepN,trials_practice.thisTrialN,trials_practice.thisN,trials_test.thisRepN,trials_test.thisTrialN,trials_test.thisN,keyResp_test_run.keys,keyResp_test_run.corr,keyResp_test_run.rt,participant
NA,NA,NA,NA,NA,NA,NA,NA,NA,NA,NA,NA,NA,NA,NA,NA,NA,NA,NA,NA,sub-69845532
NA,NA,NA,NA,NA,NA,NA,NA,NA,NA,NA,NA,NA,NA,NA,NA,NA,NA,NA,NA,sub-69845532
test,red,r,1,NA,NA,NA,NA,NA,NA,NA,NA,NA,NA,NA,NA,NA,NA,NA,NA,sub-69845532
test,yellow,g,1,NA,NA,NA,NA,NA,NA,NA,NA,NA,NA,NA,NA,NA,NA,NA,NA,sub-69845532
test,blue,b,1,NA,NA,NA,NA,NA,NA,NA,NA,NA,NA,NA,NA,NA,NA,NA,NA,sub-69845532
test,blue,b,1,NA,NA,NA,NA,NA,NA,NA,NA,NA,NA,NA,NA,NA,NA,NA,NA,sub-69845532
test,yellow,g,1,NA,NA,NA,NA,NA,NA,NA,NA,NA,NA,NA,NA,NA,NA,NA,NA,sub-69845532
test,red,r,1,NA,NA,NA,NA,NA,NA,NA,NA,NA,NA,NA,NA,NA,NA,NA,NA,sub-69845532
test,blue,b,1,NA,NA,NA,NA,NA,NA,NA,NA,NA,NA,NA,NA,NA,NA,NA,NA,sub-69845532
test,red,r,1,NA,NA,NA,NA,NA,NA,NA,NA,NA,NA,NA,NA,NA,NA,NA,NA,sub-69845532
test,yellow,g,1,NA,NA,NA,NA,NA,NA,NA,NA,NA,NA,NA,NA,NA,NA,NA,NA,sub-69845532
test,yellow,g,1,NA,NA,NA,NA,NA,NA,NA,NA,NA,NA,NA,NA,NA,NA,NA,NA,sub-69845532
test,red,r,1,NA,NA,NA,NA,NA,NA,NA,NA,NA,NA,NA,NA,NA,NA,NA,NA,sub-69845532
test,blue,b,1,NA,NA,NA,NA,NA,NA,NA,NA,NA,NA,NA,NA,NA,NA,NA,NA,sub-69845532
NA,NA,NA,NA,NA,NA,NA,NA,NA,NA,NA,NA,NA,NA,NA,NA,NA,NA,NA,NA,sub-69845532
NA,NA,NA,NA,rot,red,1,NA,NA,NA,NA,0,0,0,NA,NA,NA,NA,NA,NA,sub-69845532
NA,NA,NA,NA,gelb,blue,0,NA,NA,NA,NA,0,1,1,NA,NA,NA,NA,NA,NA,sub-69845532
NA,NA,NA,NA,blau,red,0,NA,NA,NA,NA,0,2,2,NA,NA,NA,NA,NA,NA,sub-69845532
NA,NA,NA,NA,rot,yellow,0,NA,NA,NA,NA,0,3,3,NA,NA,NA,NA,NA,NA,sub-69845532
NA,NA,NA,NA,blau,blue,1,NA,NA,NA,NA,0,4,4,NA,NA,NA,NA,NA,NA,sub-69845532
NA,NA,NA,NA,rot,red,1,NA,NA,NA,NA,0,5,5,NA,NA,NA,NA,NA,NA,sub-69845532
NA,NA,NA,NA,gelb,red,0,NA,NA,NA,NA,0,6,6,NA,NA,NA,NA,NA,NA,sub-69845532
NA,NA,NA,NA,rot,blue,0,NA,NA,NA,NA,0,7,7,NA,NA,NA,NA,NA,NA,sub-69845532
NA,NA,NA,NA,blau,yellow,0,NA,NA,NA,NA,0,8,8,NA,NA,NA,NA,NA,NA,sub-69845532
NA,NA,NA,NA,blau,blue,1,NA,NA,NA,NA,0,9,9,NA,NA,NA,NA,NA,NA,sub-69845532
NA,NA,NA,NA,gelb,yellow,1,NA,NA,NA,NA,0,10,10,NA,NA,NA,NA,NA,NA,sub-69845532
NA,NA,NA,NA,gelb,yellow,1,NA,NA,NA,NA,0,11,11,NA,NA,NA,NA,NA,NA,sub-69845532
NA,NA,NA,NA,gelb,blue,0,NA,NA,NA,NA,1,0,12,NA,NA,NA,NA,NA,NA,sub-69845532
NA,NA,NA,NA,rot,blue,0,NA,NA,NA,NA,1,1,13,NA,NA,NA,NA,NA,NA,sub-69845532
NA,NA,NA,NA,rot,red,1,NA,NA,NA,NA,1,2,14,NA,NA,NA,NA,NA,NA,sub-69845532
NA,NA,NA,NA,blau,red,0,NA,NA,NA,NA,1,3,15,NA,NA,NA,NA,NA,NA,sub-69845532
NA,NA,NA,NA,blau,yellow,0,NA,NA,NA,NA,1,4,16,NA,NA,NA,NA,NA,NA,sub-69845532
NA,NA,NA,NA,gelb,yellow,1,NA,NA,NA,NA,1,5,17,NA,NA,NA,NA,NA,NA,sub-69845532
NA,NA,NA,NA,gelb,yellow,1,NA,NA,NA,NA,1,6,18,NA,NA,NA,NA,NA,NA,sub-69845532
NA,NA,NA,NA,blau,blue,1,NA,NA,NA,NA,1,7,19,NA,NA,NA,NA,NA,NA,sub-69845532
NA,NA,NA,NA,blau,blue,1,NA,NA,NA,NA,1,8,20,NA,NA,NA,NA,NA,NA,sub-69845532
NA,NA,NA,NA,rot,yellow,0,NA,NA,NA,NA,1,9,21,NA,NA,NA,NA,NA,NA,sub-69845532
NA,NA,NA,NA,rot,red,1,NA,NA,NA,NA,1,10,22,NA,NA,NA,NA,NA,NA,sub-69845532
NA,NA,NA,NA,gelb,red,0,NA,NA,NA,NA,1,11,23,NA,NA,NA,NA,NA,NA,sub-69845532
NA,NA,NA,NA,NA,NA,NA,NA,NA,NA,NA,NA,NA,NA,NA,NA,NA,NA,NA,NA,sub-69845532
NA,NA,NA,NA,NA,NA,NA,blau,red,r,0,NA,NA,NA,0,0,0,r,1,1.316665299997112,sub-69845532
NA,NA,NA,NA,NA,NA,NA,gelb,red,r,0,NA,NA,NA,0,1,1,r,1,1.104798899999878,sub-69845532
NA,NA,NA,NA,NA,NA,NA,blau,blue,b,1,NA,NA,NA,0,2,2,b,1,2.0083326999993005,sub-69845532
NA,NA,NA,NA,NA,NA,NA,rot,blue,b,0,NA,NA,NA,0,3,3,b,1,0.8613693000006606,sub-69845532
NA,NA,NA,NA,NA,NA,NA,blau,blue,b,1,NA,NA,NA,0,4,4,b,1,1.0052909999976691,sub-69845532
NA,NA,NA,NA,NA,NA,NA,gelb,yellow,g,1,NA,NA,NA,0,5,5,g,1,1.257046500002616,sub-69845532
NA,NA,NA,NA,NA,NA,NA,rot,red,r,1,NA,NA,NA,0,6,6,r,1,0.8129569000011543,sub-69845532
NA,NA,NA,NA,NA,NA,NA,gelb,yellow,g,1,NA,NA,NA,0,7,7,g,1,1.1255810000002384,sub-69845532
NA,NA,NA,NA,NA,NA,NA,rot,red,r,1,NA,NA,NA,0,8,8,r,1,0.8626187999980175,sub-69845532
NA,NA,NA,NA,NA,NA,NA,blau,yellow,g,0,NA,NA,NA,0,9,9,b,0,0.9687980999988212,sub-69845532
NA,NA,NA,NA,NA,NA,NA,rot,yellow,g,0,NA,NA,NA,0,10,10,g,1,3.860402099999192,sub-69845532
NA,NA,NA,NA,NA,NA,NA,gelb,blue,b,0,NA,NA,NA,0,11,11,b,1,1.4892242999994778,sub-69845532
NA,NA,NA,NA,NA,NA,NA,blau,yellow,g,0,NA,NA,NA,1,0,12,g,1,2.7710201000008965,sub-69845532
NA,NA,NA,NA,NA,NA,NA,rot,red,r,1,NA,NA,NA,1,1,13,r,1,1.293213500001002,sub-69845532
NA,NA,NA,NA,NA,NA,NA,gelb,yellow,g,1,NA,NA,NA,1,2,14,g,1,1.1703736999988903,sub-69845532
NA,NA,NA,NA,NA,NA,NA,rot,yellow,g,0,NA,NA,NA,1,3,15,g,1,1.1086379999978817,sub-69845532
NA,NA,NA,NA,NA,NA,NA,gelb,blue,b,0,NA,NA,NA,1,4,16,b,1,1.3074534999977914,sub-69845532
NA,NA,NA,NA,NA,NA,NA,gelb,red,r,0,NA,NA,NA,1,5,17,r,1,1.2410706000009668,sub-69845532
NA,NA,NA,NA,NA,NA,NA,blau,blue,b,1,NA,NA,NA,1,6,18,b,1,1.1516980999986115,sub-69845532
NA,NA,NA,NA,NA,NA,NA,blau,blue,b,1,NA,NA,NA,1,7,19,b,1,0.8795910000008007,sub-69845532
NA,NA,NA,NA,NA,NA,NA,rot,blue,b,0,NA,NA,NA,1,8,20,b,1,1.5715018999981112,sub-69845532
NA,NA,NA,NA,NA,NA,NA,blau,red,r,0,NA,NA,NA,1,9,21,r,1,1.0337650000001304,sub-69845532
NA,NA,NA,NA,NA,NA,NA,rot,red,r,1,NA,NA,NA,1,10,22,r,1,0.9587495999985548,sub-69845532
NA,NA,NA,NA,NA,NA,NA,gelb,yellow,g,1,NA,NA,NA,1,11,23,g,1,1.987257700002374,sub-69845532
NA,NA,NA,NA,NA,NA,NA,gelb,yellow,g,1,NA,NA,NA,2,0,24,g,1,0.8515652000023692,sub-69845532
NA,NA,NA,NA,NA,NA,NA,gelb,blue,b,0,NA,NA,NA,2,1,25,b,1,1.1759812999989665,sub-69845532
NA,NA,NA,NA,NA,NA,NA,blau,blue,b,1,NA,NA,NA,2,2,26,b,1,1.0669759000011254,sub-69845532
NA,NA,NA,NA,NA,NA,NA,rot,yellow,g,0,NA,NA,NA,2,3,27,r,0,0.9495783999991544,sub-69845532
NA,NA,NA,NA,NA,NA,NA,blau,red,r,0,NA,NA,NA,2,4,28,r,1,2.1981733000029635,sub-69845532
NA,NA,NA,NA,NA,NA,NA,rot,red,r,1,NA,NA,NA,2,5,29,r,1,1.0264631000027291,sub-69845532
NA,NA,NA,NA,NA,NA,NA,blau,yellow,g,0,NA,NA,NA,2,6,30,g,1,1.323995200000354,sub-69845532
NA,NA,NA,NA,NA,NA,NA,rot,blue,b,0,NA,NA,NA,2,7,31,b,1,1.9893308999999135,sub-69845532
NA,NA,NA,NA,NA,NA,NA,gelb,red,r,0,NA,NA,NA,2,8,32,r,1,1.6724475000009988,sub-69845532
NA,NA,NA,NA,NA,NA,NA,gelb,yellow,g,1,NA,NA,NA,2,9,33,g,1,1.091037199999846,sub-69845532
NA,NA,NA,NA,NA,NA,NA,rot,red,r,1,NA,NA,NA,2,10,34,r,1,1.1049930999979551,sub-69845532
NA,NA,NA,NA,NA,NA,NA,blau,blue,b,1,NA,NA,NA,2,11,35,b,1,2.671887299999071,sub-69845532
NA,NA,NA,NA,NA,NA,NA,blau,blue,b,1,NA,NA,NA,3,0,36,b,1,0.6070669999971869,sub-69845532
NA,NA,NA,NA,NA,NA,NA,blau,yellow,g,0,NA,NA,NA,3,1,37,g,1,1.3499028000005635,sub-69845532
NA,NA,NA,NA,NA,NA,NA,rot,yellow,g,0,NA,NA,NA,3,2,38,g,1,0.6978156999975909,sub-69845532
NA,NA,NA,NA,NA,NA,NA,rot,red,r,1,NA,NA,NA,3,3,39,r,1,0.6742344000012963,sub-69845532
NA,NA,NA,NA,NA,NA,NA,gelb,red,r,0,NA,NA,NA,3,4,40,r,1,0.8012975999990886,sub-69845532
NA,NA,NA,NA,NA,NA,NA,rot,red,r,1,NA,NA,NA,3,5,41,r,1,0.7387715000004391,sub-69845532
NA,NA,NA,NA,NA,NA,NA,gelb,yellow,g,1,NA,NA,NA,3,6,42,g,1,0.6069410999989486,sub-69845532
NA,NA,NA,NA,NA,NA,NA,blau,red,r,0,NA,NA,NA,3,7,43,r,1,0.923860999999306,sub-69845532
NA,NA,NA,NA,NA,NA,NA,gelb,blue,b,0,NA,NA,NA,3,8,44,b,1,0.8915727999992669,sub-69845532
NA,NA,NA,NA,NA,NA,NA,blau,blue,b,1,NA,NA,NA,3,9,45,b,1,0.6243322999980592,sub-69845532
NA,NA,NA,NA,NA,NA,NA,gelb,yellow,g,1,NA,NA,NA,3,10,46,g,1,0.7113261000013154,sub-69845532
NA,NA,NA,NA,NA,NA,NA,rot,blue,b,0,NA,NA,NA,3,11,47,b,1,0.9370718999998644,sub-69845532
NA,NA,NA,NA,NA,NA,NA,blau,blue,b,1,NA,NA,NA,4,0,48,b,1,0.597831999999471,sub-69845532
NA,NA,NA,NA,NA,NA,NA,gelb,yellow,g,1,NA,NA,NA,4,1,49,g,1,0.6405588000015996,sub-69845532
NA,NA,NA,NA,NA,NA,NA,blau,red,r,0,NA,NA,NA,4,2,50,r,1,0.7107625999997254,sub-69845532
NA,NA,NA,NA,NA,NA,NA,gelb,red,r,0,NA,NA,NA,4,3,51,r,1,1.0526846000029764,sub-69845532
NA,NA,NA,NA,NA,NA,NA,gelb,blue,b,0,NA,NA,NA,4,4,52,b,1,0.8773016999984975,sub-69845532
NA,NA,NA,NA,NA,NA,NA,blau,blue,b,1,NA,NA,NA,4,5,53,b,1,0.4123021000013978,sub-69845532
NA,NA,NA,NA,NA,NA,NA,blau,yellow,g,0,NA,NA,NA,4,6,54,g,1,1.4497338000001037,sub-69845532
NA,NA,NA,NA,NA,NA,NA,gelb,yellow,g,1,NA,NA,NA,4,7,55,g,1,1.6223958000009588,sub-69845532
NA,NA,NA,NA,NA,NA,NA,rot,blue,b,0,NA,NA,NA,4,8,56,b,1,1.9866050999989968,sub-69845532
NA,NA,NA,NA,NA,NA,NA,rot,yellow,g,0,NA,NA,NA,4,9,57,g,1,0.876521900001535,sub-69845532
NA,NA,NA,NA,NA,NA,NA,rot,red,r,1,NA,NA,NA,4,10,58,r,1,0.7784573000026285,sub-69845532
NA,NA,NA,NA,NA,NA,NA,rot,red,r,1,NA,NA,NA,4,11,59,r,1,1.0481097000010775,sub-69845532
NA,NA,NA,NA,NA,NA,NA,blau,red,r,0,NA,NA,NA,5,0,60,r,1,0.8980971999990288,sub-69845532
NA,NA,NA,NA,NA,NA,NA,gelb,blue,b,0,NA,NA,NA,5,1,61,b,1,0.8055220999995072,sub-69845532
NA,NA,NA,NA,NA,NA,NA,rot,yellow,g,0,NA,NA,NA,5,2,62,r,0,0.7263373000023421,sub-69845532
NA,NA,NA,NA,NA,NA,NA,gelb,red,r,0,NA,NA,NA,5,3,63,r,1,1.1010265999975672,sub-69845532
NA,NA,NA,NA,NA,NA,NA,blau,yellow,g,0,NA,NA,NA,5,4,64,g,1,1.3004151999994065,sub-69845532
NA,NA,NA,NA,NA,NA,NA,rot,red,r,1,NA,NA,NA,5,5,65,r,1,0.8496317000026465,sub-69845532
NA,NA,NA,NA,NA,NA,NA,gelb,yellow,g,1,NA,NA,NA,5,6,66,g,1,0.8192639999979292,sub-69845532
NA,NA,NA,NA,NA,NA,NA,rot,red,r,1,NA,NA,NA,5,7,67,r,1,0.6915754000001471,sub-69845532
NA,NA,NA,NA,NA,NA,NA,gelb,yellow,g,1,NA,NA,NA,5,8,68,g,1,1.024176200000511,sub-69845532
NA,NA,NA,NA,NA,NA,NA,blau,blue,b,1,NA,NA,NA,5,9,69,b,1,0.4936147999978857,sub-69845532
NA,NA,NA,NA,NA,NA,NA,blau,blue,b,1,NA,NA,NA,5,10,70,b,1,0.6245448999979999,sub-69845532
NA,NA,NA,NA,NA,NA,NA,rot,blue,b,0,NA,NA,NA,5,11,71,b,1,0.5527744999999413,sub-69845532
NA,NA,NA,NA,NA,NA,NA,rot,red,r,1,NA,NA,NA,6,0,72,r,1,1.3557571999990614,sub-69845532
NA,NA,NA,NA,NA,NA,NA,blau,blue,b,1,NA,NA,NA,6,1,73,b,1,1.4241134000003512,sub-69845532
NA,NA,NA,NA,NA,NA,NA,rot,red,r,1,NA,NA,NA,6,2,74,r,1,1.0921172999987905,sub-69845532
NA,NA,NA,NA,NA,NA,NA,blau,yellow,g,0,NA,NA,NA,6,3,75,g,1,1.2252812999977325,sub-69845532
NA,NA,NA,NA,NA,NA,NA,gelb,red,r,0,NA,NA,NA,6,4,76,r,1,1.164329299997917,sub-69845532
NA,NA,NA,NA,NA,NA,NA,rot,blue,b,0,NA,NA,NA,6,5,77,b,1,1.355786400003126,sub-69845532
NA,NA,NA,NA,NA,NA,NA,gelb,yellow,g,1,NA,NA,NA,6,6,78,g,1,0.7846396999993885,sub-69845532
NA,NA,NA,NA,NA,NA,NA,rot,yellow,g,0,NA,NA,NA,6,7,79,g,1,1.0587818999993033,sub-69845532
NA,NA,NA,NA,NA,NA,NA,blau,blue,b,1,NA,NA,NA,6,8,80,b,1,0.5973575999996683,sub-69845532
NA,NA,NA,NA,NA,NA,NA,blau,red,r,0,NA,NA,NA,6,9,81,r,1,0.6031153000003542,sub-69845532
NA,NA,NA,NA,NA,NA,NA,gelb,yellow,g,1,NA,NA,NA,6,10,82,g,1,0.8562560000027588,sub-69845532
NA,NA,NA,NA,NA,NA,NA,gelb,blue,b,0,NA,NA,NA,6,11,83,b,1,0.7942516999974032,sub-69845532
NA,NA,NA,NA,NA,NA,NA,gelb,yellow,g,1,NA,NA,NA,7,0,84,g,1,0.8818765000032727,sub-69845532
NA,NA,NA,NA,NA,NA,NA,blau,blue,b,1,NA,NA,NA,7,1,85,b,1,0.42451489999803016,sub-69845532
NA,NA,NA,NA,NA,NA,NA,blau,red,r,0,NA,NA,NA,7,2,86,r,1,0.7158038999987184,sub-69845532
NA,NA,NA,NA,NA,NA,NA,blau,blue,b,1,NA,NA,NA,7,3,87,b,1,0.6498842000000877,sub-69845532
NA,NA,NA,NA,NA,NA,NA,gelb,red,r,0,NA,NA,NA,7,4,88,r,1,2.916456399998424,sub-69845532
NA,NA,NA,NA,NA,NA,NA,rot,blue,b,0,NA,NA,NA,7,5,89,b,1,1.4618375999998534,sub-69845532
NA,NA,NA,NA,NA,NA,NA,rot,yellow,g,0,NA,NA,NA,7,6,90,g,1,0.8703623000001244,sub-69845532
NA,NA,NA,NA,NA,NA,NA,gelb,yellow,g,1,NA,NA,NA,7,7,91,g,1,0.5194056999971508,sub-69845532
NA,NA,NA,NA,NA,NA,NA,rot,red,r,1,NA,NA,NA,7,8,92,r,1,0.5615896999988763,sub-69845532
NA,NA,NA,NA,NA,NA,NA,blau,yellow,g,0,NA,NA,NA,7,9,93,g,1,0.8433936000001268,sub-69845532
NA,NA,NA,NA,NA,NA,NA,rot,red,r,1,NA,NA,NA,7,10,94,r,1,0.8168861000012839,sub-69845532
NA,NA,NA,NA,NA,NA,NA,gelb,blue,b,0,NA,NA,NA,7,11,95,b,1,0.6476421000006667,sub-69845532
NA,NA,NA,NA,NA,NA,NA,blau,blue,b,1,NA,NA,NA,8,0,96,b,1,0.5264926000018022,sub-69845532
NA,NA,NA,NA,NA,NA,NA,gelb,red,r,0,NA,NA,NA,8,1,97,r,1,0.951515599997947,sub-69845532
NA,NA,NA,NA,NA,NA,NA,gelb,yellow,g,1,NA,NA,NA,8,2,98,g,1,0.6500920999969821,sub-69845532
NA,NA,NA,NA,NA,NA,NA,rot,red,r,1,NA,NA,NA,8,3,99,r,1,0.6718642999985605,sub-69845532
NA,NA,NA,NA,NA,NA,NA,blau,blue,b,1,NA,NA,NA,8,4,100,b,1,0.3955758999982209,sub-69845532
NA,NA,NA,NA,NA,NA,NA,rot,red,r,1,NA,NA,NA,8,5,101,r,1,0.6077460999986215,sub-69845532
NA,NA,NA,NA,NA,NA,NA,rot,blue,b,0,NA,NA,NA,8,6,102,b,1,1.6897133999991638,sub-69845532
NA,NA,NA,NA,NA,NA,NA,gelb,yellow,g,1,NA,NA,NA,8,7,103,g,1,0.650272999999288,sub-69845532
NA,NA,NA,NA,NA,NA,NA,blau,yellow,g,0,NA,NA,NA,8,8,104,g,1,1.794390300001396,sub-69845532
NA,NA,NA,NA,NA,NA,NA,rot,yellow,g,0,NA,NA,NA,8,9,105,g,1,1.3300828999999794,sub-69845532
NA,NA,NA,NA,NA,NA,NA,gelb,blue,b,0,NA,NA,NA,8,10,106,b,1,1.2664691999998468,sub-69845532
NA,NA,NA,NA,NA,NA,NA,blau,red,r,0,NA,NA,NA,8,11,107,r,1,1.2769393000016862,sub-69845532
NA,NA,NA,NA,NA,NA,NA,rot,blue,b,0,NA,NA,NA,9,0,108,b,1,0.9464829999997164,sub-69845532
NA,NA,NA,NA,NA,NA,NA,blau,blue,b,1,NA,NA,NA,9,1,109,b,1,0.9306928000005428,sub-69845532
NA,NA,NA,NA,NA,NA,NA,rot,red,r,1,NA,NA,NA,9,2,110,r,1,0.6987045999994734,sub-69845532
NA,NA,NA,NA,NA,NA,NA,blau,blue,b,1,NA,NA,NA,9,3,111,b,1,0.8626021999989462,sub-69845532
NA,NA,NA,NA,NA,NA,NA,gelb,blue,b,0,NA,NA,NA,9,4,112,b,1,0.9051088000014716,sub-69845532
NA,NA,NA,NA,NA,NA,NA,gelb,yellow,g,1,NA,NA,NA,9,5,113,g,1,0.7778098000017053,sub-69845532
NA,NA,NA,NA,NA,NA,NA,gelb,yellow,g,1,NA,NA,NA,9,6,114,g,1,0.4736860000011802,sub-69845532
NA,NA,NA,NA,NA,NA,NA,rot,red,r,1,NA,NA,NA,9,7,115,r,1,0.4189117999994778,sub-69845532
NA,NA,NA,NA,NA,NA,NA,gelb,red,r,0,NA,NA,NA,9,8,116,r,1,1.158961500001169,sub-69845532
NA,NA,NA,NA,NA,NA,NA,blau,yellow,g,0,NA,NA,NA,9,9,117,g,1,1.1424454000007245,sub-69845532
NA,NA,NA,NA,NA,NA,NA,rot,yellow,g,0,NA,NA,NA,9,10,118,g,1,0.7705243000018527,sub-69845532
NA,NA,NA,NA,NA,NA,NA,blau,red,r,0,NA,NA,NA,9,11,119,r,1,1.0525436000025366,sub-69845532
NA,NA,NA,NA,NA,NA,NA,NA,NA,NA,NA,NA,NA,NA,NA,NA,NA,NA,NA,NA,sub-69845532
