wordCTK,colorCTK,corrAnsCTK,congruentCTK,wordPractice,colorPractice,congruentPractice,word,color,corrAns,congruent,trials_practice.thisRepN,trials_practice.thisTrialN,trials_practice.thisN,trials_test.thisRepN,trials_test.thisTrialN,trials_test.thisN,keyResp_test_run.keys,keyResp_test_run.corr,keyResp_test_run.rt,participant
NA,NA,NA,NA,NA,NA,NA,NA,NA,NA,NA,NA,NA,NA,NA,NA,NA,NA,NA,NA,sub-64386918
NA,NA,NA,NA,NA,NA,NA,NA,NA,NA,NA,NA,NA,NA,NA,NA,NA,NA,NA,NA,sub-64386918
test,blue,b,1,NA,NA,NA,NA,NA,NA,NA,NA,NA,NA,NA,NA,NA,NA,NA,NA,sub-64386918
test,yellow,g,1,NA,NA,NA,NA,NA,NA,NA,NA,NA,NA,NA,NA,NA,NA,NA,NA,sub-64386918
test,red,r,1,NA,NA,NA,NA,NA,NA,NA,NA,NA,NA,NA,NA,NA,NA,NA,NA,sub-64386918
test,blue,b,1,NA,NA,NA,NA,NA,NA,NA,NA,NA,NA,NA,NA,NA,NA,NA,NA,sub-64386918
test,yellow,g,1,NA,NA,NA,NA,NA,NA,NA,NA,NA,NA,NA,NA,NA,NA,NA,NA,sub-64386918
test,red,r,1,NA,NA,NA,NA,NA,NA,NA,NA,NA,NA,NA,NA,NA,NA,NA,NA,sub-64386918
test,blue,b,1,NA,NA,NA,NA,NA,NA,NA,NA,NA,NA,NA,NA,NA,NA,NA,NA,sub-64386918
test,yellow,g,1,NA,NA,NA,NA,NA,NA,NA,NA,NA,NA,NA,NA,NA,NA,NA,NA,sub-64386918
test,red,r,1,NA,NA,NA,NA,NA,NA,NA,NA,NA,NA,NA,NA,NA,NA,NA,NA,sub-64386918
test,yellow,g,1,NA,NA,NA,NA,NA,NA,NA,NA,NA,NA,NA,NA,NA,NA,NA,NA,sub-64386918
test,blue,b,1,NA,NA,NA,NA,NA,NA,NA,NA,NA,NA,NA,NA,NA,NA,NA,NA,sub-64386918
test,red,r,1,NA,NA,NA,NA,NA,NA,NA,NA,NA,NA,NA,NA,NA,NA,NA,NA,sub-64386918
NA,NA,NA,NA,NA,NA,NA,NA,NA,NA,NA,NA,NA,NA,NA,NA,NA,NA,NA,NA,sub-64386918
NA,NA,NA,NA,blau,blue,1,NA,NA,NA,NA,0,0,0,NA,NA,NA,NA,NA,NA,sub-64386918
NA,NA,NA,NA,rot,yellow,0,NA,NA,NA,NA,0,1,1,NA,NA,NA,NA,NA,NA,sub-64386918
NA,NA,NA,NA,gelb,yellow,1,NA,NA,NA,NA,0,2,2,NA,NA,NA,NA,NA,NA,sub-64386918
NA,NA,NA,NA,gelb,yellow,1,NA,NA,NA,NA,0,3,3,NA,NA,NA,NA,NA,NA,sub-64386918
NA,NA,NA,NA,blau,red,0,NA,NA,NA,NA,0,4,4,NA,NA,NA,NA,NA,NA,sub-64386918
NA,NA,NA,NA,rot,blue,0,NA,NA,NA,NA,0,5,5,NA,NA,NA,NA,NA,NA,sub-64386918
NA,NA,NA,NA,rot,red,1,NA,NA,NA,NA,0,6,6,NA,NA,NA,NA,NA,NA,sub-64386918
NA,NA,NA,NA,gelb,blue,0,NA,NA,NA,NA,0,7,7,NA,NA,NA,NA,NA,NA,sub-64386918
NA,NA,NA,NA,blau,yellow,0,NA,NA,NA,NA,0,8,8,NA,NA,NA,NA,NA,NA,sub-64386918
NA,NA,NA,NA,blau,blue,1,NA,NA,NA,NA,0,9,9,NA,NA,NA,NA,NA,NA,sub-64386918
NA,NA,NA,NA,gelb,red,0,NA,NA,NA,NA,0,10,10,NA,NA,NA,NA,NA,NA,sub-64386918
NA,NA,NA,NA,rot,red,1,NA,NA,NA,NA,0,11,11,NA,NA,NA,NA,NA,NA,sub-64386918
NA,NA,NA,NA,gelb,yellow,1,NA,NA,NA,NA,1,0,12,NA,NA,NA,NA,NA,NA,sub-64386918
NA,NA,NA,NA,rot,yellow,0,NA,NA,NA,NA,1,1,13,NA,NA,NA,NA,NA,NA,sub-64386918
NA,NA,NA,NA,blau,yellow,0,NA,NA,NA,NA,1,2,14,NA,NA,NA,NA,NA,NA,sub-64386918
NA,NA,NA,NA,blau,blue,1,NA,NA,NA,NA,1,3,15,NA,NA,NA,NA,NA,NA,sub-64386918
NA,NA,NA,NA,blau,red,0,NA,NA,NA,NA,1,4,16,NA,NA,NA,NA,NA,NA,sub-64386918
NA,NA,NA,NA,rot,red,1,NA,NA,NA,NA,1,5,17,NA,NA,NA,NA,NA,NA,sub-64386918
NA,NA,NA,NA,gelb,red,0,NA,NA,NA,NA,1,6,18,NA,NA,NA,NA,NA,NA,sub-64386918
NA,NA,NA,NA,rot,red,1,NA,NA,NA,NA,1,7,19,NA,NA,NA,NA,NA,NA,sub-64386918
NA,NA,NA,NA,gelb,blue,0,NA,NA,NA,NA,1,8,20,NA,NA,NA,NA,NA,NA,sub-64386918
NA,NA,NA,NA,blau,blue,1,NA,NA,NA,NA,1,9,21,NA,NA,NA,NA,NA,NA,sub-64386918
NA,NA,NA,NA,rot,blue,0,NA,NA,NA,NA,1,10,22,NA,NA,NA,NA,NA,NA,sub-64386918
NA,NA,NA,NA,gelb,yellow,1,NA,NA,NA,NA,1,11,23,NA,NA,NA,NA,NA,NA,sub-64386918
NA,NA,NA,NA,NA,NA,NA,NA,NA,NA,NA,NA,NA,NA,NA,NA,NA,NA,NA,NA,sub-64386918
NA,NA,NA,NA,NA,NA,NA,gelb,yellow,g,1,NA,NA,NA,0,0,0,g,1,0.7571621000024606,sub-64386918
NA,NA,NA,NA,NA,NA,NA,blau,blue,b,1,NA,NA,NA,0,1,1,b,1,0.8364385000022594,sub-64386918
NA,NA,NA,NA,NA,NA,NA,gelb,red,r,0,NA,NA,NA,0,2,2,r,1,0.603731200004404,sub-64386918
NA,NA,NA,NA,NA,NA,NA,blau,red,r,0,NA,NA,NA,0,3,3,r,1,0.5051434999986668,sub-64386918
NA,NA,NA,NA,NA,NA,NA,rot,red,r,1,NA,NA,NA,0,4,4,r,1,0.45302470000024186,sub-64386918
NA,NA,NA,NA,NA,NA,NA,blau,blue,b,1,NA,NA,NA,0,5,5,b,1,0.6820287000009557,sub-64386918
NA,NA,NA,NA,NA,NA,NA,gelb,yellow,g,1,NA,NA,NA,0,6,6,g,1,0.5390054000017699,sub-64386918
NA,NA,NA,NA,NA,NA,NA,rot,red,r,1,NA,NA,NA,0,7,7,r,1,0.7483369000037783,sub-64386918
NA,NA,NA,NA,NA,NA,NA,blau,yellow,g,0,NA,NA,NA,0,8,8,b,0,0.8421088999966742,sub-64386918
NA,NA,NA,NA,NA,NA,NA,rot,yellow,g,0,NA,NA,NA,0,9,9,g,1,1.3423745999971288,sub-64386918
NA,NA,NA,NA,NA,NA,NA,rot,blue,b,0,NA,NA,NA,0,10,10,b,1,1.1536917999983416,sub-64386918
NA,NA,NA,NA,NA,NA,NA,gelb,blue,b,0,NA,NA,NA,0,11,11,b,1,0.7675527999963379,sub-64386918
NA,NA,NA,NA,NA,NA,NA,blau,blue,b,1,NA,NA,NA,1,0,12,b,1,0.49887589999707416,sub-64386918
NA,NA,NA,NA,NA,NA,NA,gelb,blue,b,0,NA,NA,NA,1,1,13,b,1,0.869554099997913,sub-64386918
NA,NA,NA,NA,NA,NA,NA,gelb,yellow,g,1,NA,NA,NA,1,2,14,g,1,0.7952549000037834,sub-64386918
NA,NA,NA,NA,NA,NA,NA,gelb,red,r,0,NA,NA,NA,1,3,15,r,1,0.46983449999970617,sub-64386918
NA,NA,NA,NA,NA,NA,NA,blau,red,r,0,NA,NA,NA,1,4,16,r,1,1.005427900003269,sub-64386918
NA,NA,NA,NA,NA,NA,NA,gelb,yellow,g,1,NA,NA,NA,1,5,17,g,1,0.827577799995197,sub-64386918
NA,NA,NA,NA,NA,NA,NA,rot,blue,b,0,NA,NA,NA,1,6,18,b,1,0.8208713999993051,sub-64386918
NA,NA,NA,NA,NA,NA,NA,rot,red,r,1,NA,NA,NA,1,7,19,r,1,0.706978700000036,sub-64386918
NA,NA,NA,NA,NA,NA,NA,rot,red,r,1,NA,NA,NA,1,8,20,r,1,0.632635100002517,sub-64386918
NA,NA,NA,NA,NA,NA,NA,rot,yellow,g,0,NA,NA,NA,1,9,21,g,1,0.8349063999994542,sub-64386918
NA,NA,NA,NA,NA,NA,NA,blau,blue,b,1,NA,NA,NA,1,10,22,b,1,0.6832895000043209,sub-64386918
NA,NA,NA,NA,NA,NA,NA,blau,yellow,g,0,NA,NA,NA,1,11,23,g,1,1.1808428000003914,sub-64386918
NA,NA,NA,NA,NA,NA,NA,gelb,yellow,g,1,NA,NA,NA,2,0,24,g,1,0.6495891999948071,sub-64386918
NA,NA,NA,NA,NA,NA,NA,blau,blue,b,1,NA,NA,NA,2,1,25,b,1,0.7574391000016476,sub-64386918
NA,NA,NA,NA,NA,NA,NA,blau,yellow,g,0,NA,NA,NA,2,2,26,g,1,1.0717922000039837,sub-64386918
NA,NA,NA,NA,NA,NA,NA,gelb,blue,b,0,NA,NA,NA,2,3,27,b,1,0.7234065999946324,sub-64386918
NA,NA,NA,NA,NA,NA,NA,rot,red,r,1,NA,NA,NA,2,4,28,r,1,2.0960502000016277,sub-64386918
NA,NA,NA,NA,NA,NA,NA,blau,red,r,0,NA,NA,NA,2,5,29,r,1,0.6841142999983276,sub-64386918
NA,NA,NA,NA,NA,NA,NA,blau,blue,b,1,NA,NA,NA,2,6,30,b,1,0.5940550999948755,sub-64386918
NA,NA,NA,NA,NA,NA,NA,gelb,yellow,g,1,NA,NA,NA,2,7,31,g,1,0.6145479999977397,sub-64386918
NA,NA,NA,NA,NA,NA,NA,rot,yellow,g,0,NA,NA,NA,2,8,32,g,1,0.5201333999939379,sub-64386918
NA,NA,NA,NA,NA,NA,NA,rot,red,r,1,NA,NA,NA,2,9,33,r,1,0.6337404000005336,sub-64386918
NA,NA,NA,NA,NA,NA,NA,rot,blue,b,0,NA,NA,NA,2,10,34,b,1,0.7990267999994103,sub-64386918
NA,NA,NA,NA,NA,NA,NA,gelb,red,r,0,NA,NA,NA,2,11,35,r,1,2.074731000000611,sub-64386918
NA,NA,NA,NA,NA,NA,NA,rot,blue,b,0,NA,NA,NA,3,0,36,b,1,0.7695211999962339,sub-64386918
NA,NA,NA,NA,NA,NA,NA,blau,blue,b,1,NA,NA,NA,3,1,37,b,1,0.5899246000044513,sub-64386918
NA,NA,NA,NA,NA,NA,NA,blau,blue,b,1,NA,NA,NA,3,2,38,b,1,0.5484593000001041,sub-64386918
NA,NA,NA,NA,NA,NA,NA,blau,yellow,g,0,NA,NA,NA,3,3,39,g,1,1.1938388999988092,sub-64386918
NA,NA,NA,NA,NA,NA,NA,rot,red,r,1,NA,NA,NA,3,4,40,r,1,1.2027127999972436,sub-64386918
NA,NA,NA,NA,NA,NA,NA,gelb,blue,b,0,NA,NA,NA,3,5,41,b,1,0.5467453999954159,sub-64386918
NA,NA,NA,NA,NA,NA,NA,rot,yellow,g,0,NA,NA,NA,3,6,42,g,1,1.0643109000011464,sub-64386918
NA,NA,NA,NA,NA,NA,NA,gelb,red,r,0,NA,NA,NA,3,7,43,r,1,1.0255351000014343,sub-64386918
NA,NA,NA,NA,NA,NA,NA,rot,red,r,1,NA,NA,NA,3,8,44,r,1,0.5184626999980537,sub-64386918
NA,NA,NA,NA,NA,NA,NA,blau,red,r,0,NA,NA,NA,3,9,45,r,1,0.6277946999980486,sub-64386918
NA,NA,NA,NA,NA,NA,NA,gelb,yellow,g,1,NA,NA,NA,3,10,46,g,1,0.5635143999970751,sub-64386918
NA,NA,NA,NA,NA,NA,NA,gelb,yellow,g,1,NA,NA,NA,3,11,47,g,1,0.4840124999973341,sub-64386918
NA,NA,NA,NA,NA,NA,NA,blau,red,r,0,NA,NA,NA,4,0,48,r,1,0.9786074000003282,sub-64386918
NA,NA,NA,NA,NA,NA,NA,rot,red,r,1,NA,NA,NA,4,1,49,r,1,0.5617635999951744,sub-64386918
NA,NA,NA,NA,NA,NA,NA,gelb,blue,b,0,NA,NA,NA,4,2,50,b,1,0.5752358999961871,sub-64386918
NA,NA,NA,NA,NA,NA,NA,rot,blue,b,0,NA,NA,NA,4,3,51,b,1,0.4609072000021115,sub-64386918
NA,NA,NA,NA,NA,NA,NA,blau,yellow,g,0,NA,NA,NA,4,4,52,g,1,0.3903337000010651,sub-64386918
NA,NA,NA,NA,NA,NA,NA,gelb,red,r,0,NA,NA,NA,4,5,53,r,1,0.4437309999993886,sub-64386918
NA,NA,NA,NA,NA,NA,NA,gelb,yellow,g,1,NA,NA,NA,4,6,54,g,1,0.5926553000026615,sub-64386918
NA,NA,NA,NA,NA,NA,NA,blau,blue,b,1,NA,NA,NA,4,7,55,b,1,0.5505477999977302,sub-64386918
NA,NA,NA,NA,NA,NA,NA,rot,red,r,1,NA,NA,NA,4,8,56,g,0,0.5689707000055932,sub-64386918
NA,NA,NA,NA,NA,NA,NA,blau,blue,b,1,NA,NA,NA,4,9,57,b,1,0.8909779999958118,sub-64386918
NA,NA,NA,NA,NA,NA,NA,gelb,yellow,g,1,NA,NA,NA,4,10,58,g,1,0.8038667000000714,sub-64386918
NA,NA,NA,NA,NA,NA,NA,rot,yellow,g,0,NA,NA,NA,4,11,59,g,1,1.1422190000012051,sub-64386918
NA,NA,NA,NA,NA,NA,NA,gelb,yellow,g,1,NA,NA,NA,5,0,60,g,1,0.6975872999973944,sub-64386918
NA,NA,NA,NA,NA,NA,NA,blau,blue,b,1,NA,NA,NA,5,1,61,b,1,0.7107069999983651,sub-64386918
NA,NA,NA,NA,NA,NA,NA,blau,yellow,g,0,NA,NA,NA,5,2,62,g,1,1.5221043999990798,sub-64386918
NA,NA,NA,NA,NA,NA,NA,blau,blue,b,1,NA,NA,NA,5,3,63,b,1,0.6630022999961511,sub-64386918
NA,NA,NA,NA,NA,NA,NA,rot,red,r,1,NA,NA,NA,5,4,64,r,1,0.5974352000048384,sub-64386918
NA,NA,NA,NA,NA,NA,NA,gelb,blue,b,0,NA,NA,NA,5,5,65,b,1,1.059453299996676,sub-64386918
NA,NA,NA,NA,NA,NA,NA,gelb,yellow,g,1,NA,NA,NA,5,6,66,g,1,0.8392880999963381,sub-64386918
NA,NA,NA,NA,NA,NA,NA,blau,red,r,0,NA,NA,NA,5,7,67,r,1,1.0704296999974758,sub-64386918
NA,NA,NA,NA,NA,NA,NA,rot,red,r,1,NA,NA,NA,5,8,68,r,1,0.470057699996687,sub-64386918
NA,NA,NA,NA,NA,NA,NA,rot,blue,b,0,NA,NA,NA,5,9,69,b,1,0.6098842999999761,sub-64386918
NA,NA,NA,NA,NA,NA,NA,gelb,red,r,0,NA,NA,NA,5,10,70,r,1,1.2836133999953745,sub-64386918
NA,NA,NA,NA,NA,NA,NA,rot,yellow,g,0,NA,NA,NA,5,11,71,g,1,0.9752435000045808,sub-64386918
NA,NA,NA,NA,NA,NA,NA,gelb,yellow,g,1,NA,NA,NA,6,0,72,g,1,0.9874873000007938,sub-64386918
NA,NA,NA,NA,NA,NA,NA,gelb,yellow,g,1,NA,NA,NA,6,1,73,g,1,0.4828354999990552,sub-64386918
NA,NA,NA,NA,NA,NA,NA,rot,red,r,1,NA,NA,NA,6,2,74,r,1,1.010449300003529,sub-64386918
NA,NA,NA,NA,NA,NA,NA,blau,blue,b,1,NA,NA,NA,6,3,75,b,1,0.5840423999979976,sub-64386918
NA,NA,NA,NA,NA,NA,NA,gelb,red,r,0,NA,NA,NA,6,4,76,r,1,1.3562715000007302,sub-64386918
NA,NA,NA,NA,NA,NA,NA,gelb,blue,b,0,NA,NA,NA,6,5,77,b,1,0.4371656000002986,sub-64386918
NA,NA,NA,NA,NA,NA,NA,blau,yellow,g,0,NA,NA,NA,6,6,78,g,1,1.4365227999951458,sub-64386918
NA,NA,NA,NA,NA,NA,NA,blau,red,r,0,NA,NA,NA,6,7,79,r,1,0.8226894000035827,sub-64386918
NA,NA,NA,NA,NA,NA,NA,rot,blue,b,0,NA,NA,NA,6,8,80,b,1,1.1941271999967285,sub-64386918
NA,NA,NA,NA,NA,NA,NA,blau,blue,b,1,NA,NA,NA,6,9,81,b,1,0.5016599000009592,sub-64386918
NA,NA,NA,NA,NA,NA,NA,rot,red,r,1,NA,NA,NA,6,10,82,r,1,0.7053075000003446,sub-64386918
NA,NA,NA,NA,NA,NA,NA,rot,yellow,g,0,NA,NA,NA,6,11,83,g,1,0.6592109999983222,sub-64386918
NA,NA,NA,NA,NA,NA,NA,gelb,blue,b,0,NA,NA,NA,7,0,84,b,1,0.4814364999983809,sub-64386918
NA,NA,NA,NA,NA,NA,NA,blau,yellow,g,0,NA,NA,NA,7,1,85,g,1,1.0642722999982652,sub-64386918
NA,NA,NA,NA,NA,NA,NA,blau,blue,b,1,NA,NA,NA,7,2,86,b,1,0.6297234000012395,sub-64386918
NA,NA,NA,NA,NA,NA,NA,gelb,yellow,g,1,NA,NA,NA,7,3,87,g,1,0.6319531000044663,sub-64386918
NA,NA,NA,NA,NA,NA,NA,blau,red,r,0,NA,NA,NA,7,4,88,r,1,0.6859826999934739,sub-64386918
NA,NA,NA,NA,NA,NA,NA,gelb,red,r,0,NA,NA,NA,7,5,89,r,1,0.42568670000036946,sub-64386918
NA,NA,NA,NA,NA,NA,NA,rot,yellow,g,0,NA,NA,NA,7,6,90,g,1,1.4435106000019005,sub-64386918
NA,NA,NA,NA,NA,NA,NA,rot,red,r,1,NA,NA,NA,7,7,91,r,1,0.7923553000000538,sub-64386918
NA,NA,NA,NA,NA,NA,NA,gelb,yellow,g,1,NA,NA,NA,7,8,92,g,1,1.3700269000037224,sub-64386918
NA,NA,NA,NA,NA,NA,NA,rot,blue,b,0,NA,NA,NA,7,9,93,b,1,0.9842696999985492,sub-64386918
NA,NA,NA,NA,NA,NA,NA,blau,blue,b,1,NA,NA,NA,7,10,94,b,1,0.4116695000047912,sub-64386918
NA,NA,NA,NA,NA,NA,NA,rot,red,r,1,NA,NA,NA,7,11,95,r,1,0.987309500000265,sub-64386918
NA,NA,NA,NA,NA,NA,NA,gelb,red,r,0,NA,NA,NA,8,0,96,r,1,0.7473014999995939,sub-64386918
NA,NA,NA,NA,NA,NA,NA,gelb,blue,b,0,NA,NA,NA,8,1,97,b,1,0.4874487999986741,sub-64386918
NA,NA,NA,NA,NA,NA,NA,blau,blue,b,1,NA,NA,NA,8,2,98,b,1,0.6641316000022925,sub-64386918
NA,NA,NA,NA,NA,NA,NA,blau,red,r,0,NA,NA,NA,8,3,99,r,1,0.5126032999978634,sub-64386918
NA,NA,NA,NA,NA,NA,NA,rot,red,r,1,NA,NA,NA,8,4,100,r,1,0.3454351000036695,sub-64386918
NA,NA,NA,NA,NA,NA,NA,rot,red,r,1,NA,NA,NA,8,5,101,r,1,0.4316015000003972,sub-64386918
NA,NA,NA,NA,NA,NA,NA,gelb,yellow,g,1,NA,NA,NA,8,6,102,g,1,0.5829878000004101,sub-64386918
NA,NA,NA,NA,NA,NA,NA,gelb,yellow,g,1,NA,NA,NA,8,7,103,g,1,0.43734540000150446,sub-64386918
NA,NA,NA,NA,NA,NA,NA,rot,blue,b,0,NA,NA,NA,8,8,104,b,1,1.6996848000053433,sub-64386918
NA,NA,NA,NA,NA,NA,NA,rot,yellow,g,0,NA,NA,NA,8,9,105,g,1,0.9679550000000744,sub-64386918
NA,NA,NA,NA,NA,NA,NA,blau,blue,b,1,NA,NA,NA,8,10,106,b,1,0.6800610999998753,sub-64386918
NA,NA,NA,NA,NA,NA,NA,blau,yellow,g,0,NA,NA,NA,8,11,107,g,1,1.1637322999958997,sub-64386918
NA,NA,NA,NA,NA,NA,NA,blau,blue,b,1,NA,NA,NA,9,0,108,b,1,0.7079576999967685,sub-64386918
NA,NA,NA,NA,NA,NA,NA,blau,blue,b,1,NA,NA,NA,9,1,109,b,1,0.4293455000006361,sub-64386918
NA,NA,NA,NA,NA,NA,NA,gelb,yellow,g,1,NA,NA,NA,9,2,110,g,1,0.5199357999954373,sub-64386918
NA,NA,NA,NA,NA,NA,NA,gelb,red,r,0,NA,NA,NA,9,3,111,r,1,1.1660480000064126,sub-64386918
NA,NA,NA,NA,NA,NA,NA,gelb,yellow,g,1,NA,NA,NA,9,4,112,g,1,1.153069100000721,sub-64386918
NA,NA,NA,NA,NA,NA,NA,rot,red,r,1,NA,NA,NA,9,5,113,r,1,0.6352932000008877,sub-64386918
NA,NA,NA,NA,NA,NA,NA,gelb,blue,b,0,NA,NA,NA,9,6,114,b,1,0.5734326999954646,sub-64386918
NA,NA,NA,NA,NA,NA,NA,blau,red,r,0,NA,NA,NA,9,7,115,r,1,0.9509113000021898,sub-64386918
NA,NA,NA,NA,NA,NA,NA,blau,yellow,g,0,NA,NA,NA,9,8,116,g,1,0.7129063999964274,sub-64386918
NA,NA,NA,NA,NA,NA,NA,rot,red,r,1,NA,NA,NA,9,9,117,r,1,0.6132144000002882,sub-64386918
NA,NA,NA,NA,NA,NA,NA,rot,yellow,g,0,NA,NA,NA,9,10,118,g,1,0.8923586000018986,sub-64386918
NA,NA,NA,NA,NA,NA,NA,rot,blue,b,0,NA,NA,NA,9,11,119,b,1,1.5306143999987398,sub-64386918
NA,NA,NA,NA,NA,NA,NA,NA,NA,NA,NA,NA,NA,NA,NA,NA,NA,NA,NA,NA,sub-64386918
