wordCTK,colorCTK,corrAnsCTK,congruentCTK,wordPractice,colorPractice,congruentPractice,word,color,corrAns,congruent,trials_practice.thisRepN,trials_practice.thisTrialN,trials_practice.thisN,trials_test.thisRepN,trials_test.thisTrialN,trials_test.thisN,keyResp_test_run.keys,keyResp_test_run.corr,keyResp_test_run.rt,participant
NA,NA,NA,NA,NA,NA,NA,NA,NA,NA,NA,NA,NA,NA,NA,NA,NA,NA,NA,NA,sub-75143607
NA,NA,NA,NA,NA,NA,NA,NA,NA,NA,NA,NA,NA,NA,NA,NA,NA,NA,NA,NA,sub-75143607
test,blue,b,1,NA,NA,NA,NA,NA,NA,NA,NA,NA,NA,NA,NA,NA,NA,NA,NA,sub-75143607
test,red,r,1,NA,NA,NA,NA,NA,NA,NA,NA,NA,NA,NA,NA,NA,NA,NA,NA,sub-75143607
test,yellow,g,1,NA,NA,NA,NA,NA,NA,NA,NA,NA,NA,NA,NA,NA,NA,NA,NA,sub-75143607
test,yellow,g,1,NA,NA,NA,NA,NA,NA,NA,NA,NA,NA,NA,NA,NA,NA,NA,NA,sub-75143607
test,red,r,1,NA,NA,NA,NA,NA,NA,NA,NA,NA,NA,NA,NA,NA,NA,NA,NA,sub-75143607
test,blue,b,1,NA,NA,NA,NA,NA,NA,NA,NA,NA,NA,NA,NA,NA,NA,NA,NA,sub-75143607
test,blue,b,1,NA,NA,NA,NA,NA,NA,NA,NA,NA,NA,NA,NA,NA,NA,NA,NA,sub-75143607
test,red,r,1,NA,NA,NA,NA,NA,NA,NA,NA,NA,NA,NA,NA,NA,NA,NA,NA,sub-75143607
test,yellow,g,1,NA,NA,NA,NA,NA,NA,NA,NA,NA,NA,NA,NA,NA,NA,NA,NA,sub-75143607
test,yellow,g,1,NA,NA,NA,NA,NA,NA,NA,NA,NA,NA,NA,NA,NA,NA,NA,NA,sub-75143607
test,blue,b,1,NA,NA,NA,NA,NA,NA,NA,NA,NA,NA,NA,NA,NA,NA,NA,NA,sub-75143607
test,red,r,1,NA,NA,NA,NA,NA,NA,NA,NA,NA,NA,NA,NA,NA,NA,NA,NA,sub-75143607
NA,NA,NA,NA,NA,NA,NA,NA,NA,NA,NA,NA,NA,NA,NA,NA,NA,NA,NA,NA,sub-75143607
NA,NA,NA,NA,rot,red,1,NA,NA,NA,NA,0,0,0,NA,NA,NA,NA,NA,NA,sub-75143607
NA,NA,NA,NA,blau,blue,1,NA,NA,NA,NA,0,1,1,NA,NA,NA,NA,NA,NA,sub-75143607
NA,NA,NA,NA,rot,blue,0,NA,NA,NA,NA,0,2,2,NA,NA,NA,NA,NA,NA,sub-75143607
NA,NA,NA,NA,blau,yellow,0,NA,NA,NA,NA,0,3,3,NA,NA,NA,NA,NA,NA,sub-75143607
NA,NA,NA,NA,rot,red,1,NA,NA,NA,NA,0,4,4,NA,NA,NA,NA,NA,NA,sub-75143607
NA,NA,NA,NA,gelb,yellow,1,NA,NA,NA,NA,0,5,5,NA,NA,NA,NA,NA,NA,sub-75143607
NA,NA,NA,NA,rot,yellow,0,NA,NA,NA,NA,0,6,6,NA,NA,NA,NA,NA,NA,sub-75143607
NA,NA,NA,NA,blau,blue,1,NA,NA,NA,NA,0,7,7,NA,NA,NA,NA,NA,NA,sub-75143607
NA,NA,NA,NA,gelb,red,0,NA,NA,NA,NA,0,8,8,NA,NA,NA,NA,NA,NA,sub-75143607
NA,NA,NA,NA,gelb,blue,0,NA,NA,NA,NA,0,9,9,NA,NA,NA,NA,NA,NA,sub-75143607
NA,NA,NA,NA,blau,red,0,NA,NA,NA,NA,0,10,10,NA,NA,NA,NA,NA,NA,sub-75143607
NA,NA,NA,NA,gelb,yellow,1,NA,NA,NA,NA,0,11,11,NA,NA,NA,NA,NA,NA,sub-75143607
NA,NA,NA,NA,rot,red,1,NA,NA,NA,NA,1,0,12,NA,NA,NA,NA,NA,NA,sub-75143607
NA,NA,NA,NA,rot,blue,0,NA,NA,NA,NA,1,1,13,NA,NA,NA,NA,NA,NA,sub-75143607
NA,NA,NA,NA,rot,yellow,0,NA,NA,NA,NA,1,2,14,NA,NA,NA,NA,NA,NA,sub-75143607
NA,NA,NA,NA,blau,yellow,0,NA,NA,NA,NA,1,3,15,NA,NA,NA,NA,NA,NA,sub-75143607
NA,NA,NA,NA,blau,blue,1,NA,NA,NA,NA,1,4,16,NA,NA,NA,NA,NA,NA,sub-75143607
NA,NA,NA,NA,blau,red,0,NA,NA,NA,NA,1,5,17,NA,NA,NA,NA,NA,NA,sub-75143607
NA,NA,NA,NA,gelb,yellow,1,NA,NA,NA,NA,1,6,18,NA,NA,NA,NA,NA,NA,sub-75143607
NA,NA,NA,NA,gelb,red,0,NA,NA,NA,NA,1,7,19,NA,NA,NA,NA,NA,NA,sub-75143607
NA,NA,NA,NA,gelb,yellow,1,NA,NA,NA,NA,1,8,20,NA,NA,NA,NA,NA,NA,sub-75143607
NA,NA,NA,NA,gelb,blue,0,NA,NA,NA,NA,1,9,21,NA,NA,NA,NA,NA,NA,sub-75143607
NA,NA,NA,NA,blau,blue,1,NA,NA,NA,NA,1,10,22,NA,NA,NA,NA,NA,NA,sub-75143607
NA,NA,NA,NA,rot,red,1,NA,NA,NA,NA,1,11,23,NA,NA,NA,NA,NA,NA,sub-75143607
NA,NA,NA,NA,NA,NA,NA,NA,NA,NA,NA,NA,NA,NA,NA,NA,NA,NA,NA,NA,sub-75143607
NA,NA,NA,NA,NA,NA,NA,gelb,yellow,g,1,NA,NA,NA,0,0,0,r,0,0.9452122,sub-75143607
NA,NA,NA,NA,NA,NA,NA,gelb,red,r,0,NA,NA,NA,0,1,1,r,1,1.0057502,sub-75143607
NA,NA,NA,NA,NA,NA,NA,rot,red,r,1,NA,NA,NA,0,2,2,r,1,1.010423,sub-75143607
NA,NA,NA,NA,NA,NA,NA,blau,blue,b,1,NA,NA,NA,0,3,3,b,1,0.682633,sub-75143607
NA,NA,NA,NA,NA,NA,NA,rot,blue,b,0,NA,NA,NA,0,4,4,b,1,0.7755715,sub-75143607
NA,NA,NA,NA,NA,NA,NA,gelb,blue,b,0,NA,NA,NA,0,5,5,g,0,0.9761651,sub-75143607
NA,NA,NA,NA,NA,NA,NA,blau,red,r,0,NA,NA,NA,0,6,6,r,1,0.6376961,sub-75143607
NA,NA,NA,NA,NA,NA,NA,rot,red,r,1,NA,NA,NA,0,7,7,r,1,0.6049954,sub-75143607
NA,NA,NA,NA,NA,NA,NA,gelb,yellow,g,1,NA,NA,NA,0,8,8,g,1,0.6939528,sub-75143607
NA,NA,NA,NA,NA,NA,NA,blau,yellow,g,0,NA,NA,NA,0,9,9,g,1,0.4767456,sub-75143607
NA,NA,NA,NA,NA,NA,NA,rot,yellow,g,0,NA,NA,NA,0,10,10,g,1,0.5485671,sub-75143607
NA,NA,NA,NA,NA,NA,NA,blau,blue,b,1,NA,NA,NA,0,11,11,b,1,0.6248782,sub-75143607
NA,NA,NA,NA,NA,NA,NA,rot,blue,b,0,NA,NA,NA,1,0,12,b,1,0.6772519,sub-75143607
NA,NA,NA,NA,NA,NA,NA,gelb,red,r,0,NA,NA,NA,1,1,13,r,1,0.7209936,sub-75143607
NA,NA,NA,NA,NA,NA,NA,rot,red,r,1,NA,NA,NA,1,2,14,r,1,0.4201669,sub-75143607
NA,NA,NA,NA,NA,NA,NA,blau,blue,b,1,NA,NA,NA,1,3,15,b,1,0.5241947,sub-75143607
NA,NA,NA,NA,NA,NA,NA,gelb,yellow,g,1,NA,NA,NA,1,4,16,g,1,1.0860996,sub-75143607
NA,NA,NA,NA,NA,NA,NA,blau,blue,b,1,NA,NA,NA,1,5,17,b,1,0.9253767,sub-75143607
NA,NA,NA,NA,NA,NA,NA,gelb,blue,b,0,NA,NA,NA,1,6,18,b,1,0.7430893,sub-75143607
NA,NA,NA,NA,NA,NA,NA,rot,yellow,g,0,NA,NA,NA,1,7,19,r,0,0.7360458,sub-75143607
NA,NA,NA,NA,NA,NA,NA,blau,yellow,g,0,NA,NA,NA,1,8,20,g,1,0.9142122,sub-75143607
NA,NA,NA,NA,NA,NA,NA,rot,red,r,1,NA,NA,NA,1,9,21,r,1,0.7503037,sub-75143607
NA,NA,NA,NA,NA,NA,NA,blau,red,r,0,NA,NA,NA,1,10,22,r,1,0.8209535,sub-75143607
NA,NA,NA,NA,NA,NA,NA,gelb,yellow,g,1,NA,NA,NA,1,11,23,g,1,0.8114812,sub-75143607
NA,NA,NA,NA,NA,NA,NA,rot,blue,b,0,NA,NA,NA,2,0,24,r,0,0.8168487,sub-75143607
NA,NA,NA,NA,NA,NA,NA,blau,red,r,0,NA,NA,NA,2,1,25,r,1,2.1352327,sub-75143607
NA,NA,NA,NA,NA,NA,NA,gelb,yellow,g,1,NA,NA,NA,2,2,26,g,1,1.1919238,sub-75143607
NA,NA,NA,NA,NA,NA,NA,gelb,red,r,0,NA,NA,NA,2,3,27,r,1,1.2255965,sub-75143607
NA,NA,NA,NA,NA,NA,NA,blau,yellow,g,0,NA,NA,NA,2,4,28,g,1,1.0001132,sub-75143607
NA,NA,NA,NA,NA,NA,NA,blau,blue,b,1,NA,NA,NA,2,5,29,b,1,0.7396484,sub-75143607
NA,NA,NA,NA,NA,NA,NA,rot,red,r,1,NA,NA,NA,2,6,30,r,1,0.7547093,sub-75143607
NA,NA,NA,NA,NA,NA,NA,rot,yellow,g,0,NA,NA,NA,2,7,31,g,1,0.8155984,sub-75143607
NA,NA,NA,NA,NA,NA,NA,gelb,blue,b,0,NA,NA,NA,2,8,32,b,1,0.8050639,sub-75143607
NA,NA,NA,NA,NA,NA,NA,blau,blue,b,1,NA,NA,NA,2,9,33,b,1,0.6869383,sub-75143607
NA,NA,NA,NA,NA,NA,NA,gelb,yellow,g,1,NA,NA,NA,2,10,34,g,1,1.1567824,sub-75143607
NA,NA,NA,NA,NA,NA,NA,rot,red,r,1,NA,NA,NA,2,11,35,r,1,0.5601126,sub-75143607
NA,NA,NA,NA,NA,NA,NA,rot,red,r,1,NA,NA,NA,3,0,36,r,1,0.5438509,sub-75143607
NA,NA,NA,NA,NA,NA,NA,blau,blue,b,1,NA,NA,NA,3,1,37,b,1,0.785762,sub-75143607
NA,NA,NA,NA,NA,NA,NA,blau,red,r,0,NA,NA,NA,3,2,38,r,1,1.043033,sub-75143607
NA,NA,NA,NA,NA,NA,NA,blau,yellow,g,0,NA,NA,NA,3,3,39,g,1,0.696523,sub-75143607
NA,NA,NA,NA,NA,NA,NA,rot,red,r,1,NA,NA,NA,3,4,40,r,1,1.0479767,sub-75143607
NA,NA,NA,NA,NA,NA,NA,blau,blue,b,1,NA,NA,NA,3,5,41,b,1,0.8455027,sub-75143607
NA,NA,NA,NA,NA,NA,NA,gelb,yellow,g,1,NA,NA,NA,3,6,42,g,1,0.9596161,sub-75143607
NA,NA,NA,NA,NA,NA,NA,gelb,yellow,g,1,NA,NA,NA,3,7,43,g,1,0.4065667,sub-75143607
NA,NA,NA,NA,NA,NA,NA,rot,yellow,g,0,NA,NA,NA,3,8,44,g,1,0.5698707,sub-75143607
NA,NA,NA,NA,NA,NA,NA,gelb,red,r,0,NA,NA,NA,3,9,45,r,1,1.179464,sub-75143607
NA,NA,NA,NA,NA,NA,NA,gelb,blue,b,0,NA,NA,NA,3,10,46,b,1,1.525795,sub-75143607
NA,NA,NA,NA,NA,NA,NA,rot,blue,b,0,NA,NA,NA,3,11,47,b,1,0.8736264,sub-75143607
NA,NA,NA,NA,NA,NA,NA,gelb,yellow,g,1,NA,NA,NA,4,0,48,g,1,0.9091002,sub-75143607
NA,NA,NA,NA,NA,NA,NA,gelb,yellow,g,1,NA,NA,NA,4,1,49,g,1,0.4717067,sub-75143607
NA,NA,NA,NA,NA,NA,NA,blau,yellow,g,0,NA,NA,NA,4,2,50,g,1,0.4588639,sub-75143607
NA,NA,NA,NA,NA,NA,NA,blau,red,r,0,NA,NA,NA,4,3,51,r,1,0.8020056,sub-75143607
NA,NA,NA,NA,NA,NA,NA,rot,red,r,1,NA,NA,NA,4,4,52,r,1,0.6332022,sub-75143607
NA,NA,NA,NA,NA,NA,NA,rot,blue,b,0,NA,NA,NA,4,5,53,b,1,0.5662327,sub-75143607
NA,NA,NA,NA,NA,NA,NA,rot,yellow,g,0,NA,NA,NA,4,6,54,g,1,0.999055,sub-75143607
NA,NA,NA,NA,NA,NA,NA,gelb,red,r,0,NA,NA,NA,4,7,55,r,1,0.8535959,sub-75143607
NA,NA,NA,NA,NA,NA,NA,blau,blue,b,1,NA,NA,NA,4,8,56,b,1,0.8039806,sub-75143607
NA,NA,NA,NA,NA,NA,NA,gelb,blue,b,0,NA,NA,NA,4,9,57,b,1,0.8553334,sub-75143607
NA,NA,NA,NA,NA,NA,NA,rot,red,r,1,NA,NA,NA,4,10,58,r,1,0.8996659,sub-75143607
NA,NA,NA,NA,NA,NA,NA,blau,blue,b,1,NA,NA,NA,4,11,59,b,1,0.6769008,sub-75143607
NA,NA,NA,NA,NA,NA,NA,gelb,yellow,g,1,NA,NA,NA,5,0,60,g,1,0.9811903,sub-75143607
NA,NA,NA,NA,NA,NA,NA,rot,yellow,g,0,NA,NA,NA,5,1,61,g,1,0.6421685,sub-75143607
NA,NA,NA,NA,NA,NA,NA,gelb,yellow,g,1,NA,NA,NA,5,2,62,g,1,0.571279,sub-75143607
NA,NA,NA,NA,NA,NA,NA,rot,red,r,1,NA,NA,NA,5,3,63,r,1,0.8902397,sub-75143607
NA,NA,NA,NA,NA,NA,NA,gelb,blue,b,0,NA,NA,NA,5,4,64,b,1,0.775392,sub-75143607
NA,NA,NA,NA,NA,NA,NA,blau,blue,b,1,NA,NA,NA,5,5,65,b,1,0.4618839,sub-75143607
NA,NA,NA,NA,NA,NA,NA,rot,blue,b,0,NA,NA,NA,5,6,66,b,1,0.5162203,sub-75143607
NA,NA,NA,NA,NA,NA,NA,rot,red,r,1,NA,NA,NA,5,7,67,r,1,0.8383019,sub-75143607
NA,NA,NA,NA,NA,NA,NA,blau,blue,b,1,NA,NA,NA,5,8,68,b,1,0.8598766,sub-75143607
NA,NA,NA,NA,NA,NA,NA,blau,yellow,g,0,NA,NA,NA,5,9,69,g,1,0.8081799,sub-75143607
NA,NA,NA,NA,NA,NA,NA,blau,red,r,0,NA,NA,NA,5,10,70,r,1,0.8785563,sub-75143607
NA,NA,NA,NA,NA,NA,NA,gelb,red,r,0,NA,NA,NA,5,11,71,r,1,0.5688716,sub-75143607
NA,NA,NA,NA,NA,NA,NA,gelb,blue,b,0,NA,NA,NA,6,0,72,b,1,0.7248086,sub-75143607
NA,NA,NA,NA,NA,NA,NA,blau,yellow,g,0,NA,NA,NA,6,1,73,g,1,0.6931177,sub-75143607
NA,NA,NA,NA,NA,NA,NA,rot,blue,b,0,NA,NA,NA,6,2,74,b,1,1.2398234,sub-75143607
NA,NA,NA,NA,NA,NA,NA,rot,red,r,1,NA,NA,NA,6,3,75,r,1,0.5635684,sub-75143607
NA,NA,NA,NA,NA,NA,NA,gelb,yellow,g,1,NA,NA,NA,6,4,76,g,1,0.7521779,sub-75143607
NA,NA,NA,NA,NA,NA,NA,blau,red,r,0,NA,NA,NA,6,5,77,r,1,0.9768133,sub-75143607
NA,NA,NA,NA,NA,NA,NA,blau,blue,b,1,NA,NA,NA,6,6,78,b,1,0.8006391,sub-75143607
NA,NA,NA,NA,NA,NA,NA,gelb,yellow,g,1,NA,NA,NA,6,7,79,g,1,1.3605207,sub-75143607
NA,NA,NA,NA,NA,NA,NA,rot,yellow,g,0,NA,NA,NA,6,8,80,g,1,0.7889634,sub-75143607
NA,NA,NA,NA,NA,NA,NA,rot,red,r,1,NA,NA,NA,6,9,81,r,1,1.0073701,sub-75143607
NA,NA,NA,NA,NA,NA,NA,blau,blue,b,1,NA,NA,NA,6,10,82,b,1,0.6959569,sub-75143607
NA,NA,NA,NA,NA,NA,NA,gelb,red,r,0,NA,NA,NA,6,11,83,r,1,2.2123523,sub-75143607
NA,NA,NA,NA,NA,NA,NA,blau,blue,b,1,NA,NA,NA,7,0,84,b,1,2.1545217,sub-75143607
NA,NA,NA,NA,NA,NA,NA,blau,yellow,g,0,NA,NA,NA,7,1,85,g,1,0.8392332,sub-75143607
NA,NA,NA,NA,NA,NA,NA,rot,blue,b,0,NA,NA,NA,7,2,86,b,1,2.3444905,sub-75143607
NA,NA,NA,NA,NA,NA,NA,gelb,yellow,g,1,NA,NA,NA,7,3,87,g,1,1.3956331,sub-75143607
NA,NA,NA,NA,NA,NA,NA,blau,blue,b,1,NA,NA,NA,7,4,88,b,1,0.917145,sub-75143607
NA,NA,NA,NA,NA,NA,NA,rot,red,r,1,NA,NA,NA,7,5,89,r,1,0.6753084,sub-75143607
NA,NA,NA,NA,NA,NA,NA,gelb,yellow,g,1,NA,NA,NA,7,6,90,r,0,0.9353831,sub-75143607
NA,NA,NA,NA,NA,NA,NA,gelb,blue,b,0,NA,NA,NA,7,7,91,b,1,1.2736846,sub-75143607
NA,NA,NA,NA,NA,NA,NA,rot,yellow,g,0,NA,NA,NA,7,8,92,g,1,1.3209964,sub-75143607
NA,NA,NA,NA,NA,NA,NA,rot,red,r,1,NA,NA,NA,7,9,93,r,1,0.8071206,sub-75143607
NA,NA,NA,NA,NA,NA,NA,blau,red,r,0,NA,NA,NA,7,10,94,r,1,0.7974595,sub-75143607
NA,NA,NA,NA,NA,NA,NA,gelb,red,r,0,NA,NA,NA,7,11,95,r,1,0.3754526,sub-75143607
NA,NA,NA,NA,NA,NA,NA,rot,blue,b,0,NA,NA,NA,8,0,96,b,1,0.7164387,sub-75143607
NA,NA,NA,NA,NA,NA,NA,gelb,blue,b,0,NA,NA,NA,8,1,97,b,1,0.5237026,sub-75143607
NA,NA,NA,NA,NA,NA,NA,blau,red,r,0,NA,NA,NA,8,2,98,r,1,0.911775,sub-75143607
NA,NA,NA,NA,NA,NA,NA,blau,blue,b,1,NA,NA,NA,8,3,99,b,1,0.7764944,sub-75143607
NA,NA,NA,NA,NA,NA,NA,rot,yellow,g,0,NA,NA,NA,8,4,100,g,1,0.9988665,sub-75143607
NA,NA,NA,NA,NA,NA,NA,rot,red,r,1,NA,NA,NA,8,5,101,r,1,0.7458747,sub-75143607
NA,NA,NA,NA,NA,NA,NA,rot,red,r,1,NA,NA,NA,8,6,102,r,1,0.6110066,sub-75143607
NA,NA,NA,NA,NA,NA,NA,blau,yellow,g,0,NA,NA,NA,8,7,103,g,1,1.3669565,sub-75143607
NA,NA,NA,NA,NA,NA,NA,gelb,red,r,0,NA,NA,NA,8,8,104,r,1,0.9449962,sub-75143607
NA,NA,NA,NA,NA,NA,NA,gelb,yellow,g,1,NA,NA,NA,8,9,105,g,1,0.8701782,sub-75143607
NA,NA,NA,NA,NA,NA,NA,gelb,yellow,g,1,NA,NA,NA,8,10,106,g,1,0.3744166,sub-75143607
NA,NA,NA,NA,NA,NA,NA,blau,blue,b,1,NA,NA,NA,8,11,107,b,1,0.6536246,sub-75143607
NA,NA,NA,NA,NA,NA,NA,blau,blue,b,1,NA,NA,NA,9,0,108,b,1,0.7639472,sub-75143607
NA,NA,NA,NA,NA,NA,NA,rot,blue,b,0,NA,NA,NA,9,1,109,b,1,0.6131045,sub-75143607
NA,NA,NA,NA,NA,NA,NA,rot,red,r,1,NA,NA,NA,9,2,110,r,1,1.0816531,sub-75143607
NA,NA,NA,NA,NA,NA,NA,gelb,blue,b,0,NA,NA,NA,9,3,111,b,1,1.0432049,sub-75143607
NA,NA,NA,NA,NA,NA,NA,blau,blue,b,1,NA,NA,NA,9,4,112,b,1,0.5226239,sub-75143607
NA,NA,NA,NA,NA,NA,NA,rot,red,r,1,NA,NA,NA,9,5,113,r,1,0.8447402,sub-75143607
NA,NA,NA,NA,NA,NA,NA,blau,red,r,0,NA,NA,NA,9,6,114,r,1,0.6367599,sub-75143607
NA,NA,NA,NA,NA,NA,NA,gelb,yellow,g,1,NA,NA,NA,9,7,115,g,1,0.7043543,sub-75143607
NA,NA,NA,NA,NA,NA,NA,gelb,yellow,g,1,NA,NA,NA,9,8,116,g,1,0.4906927,sub-75143607
NA,NA,NA,NA,NA,NA,NA,gelb,red,r,0,NA,NA,NA,9,9,117,r,1,0.9667233,sub-75143607
NA,NA,NA,NA,NA,NA,NA,rot,yellow,g,0,NA,NA,NA,9,10,118,g,1,0.8823082,sub-75143607
NA,NA,NA,NA,NA,NA,NA,blau,yellow,g,0,NA,NA,NA,9,11,119,g,1,1.0357551,sub-75143607
NA,NA,NA,NA,NA,NA,NA,NA,NA,NA,NA,NA,NA,NA,NA,NA,NA,NA,NA,NA,sub-75143607
