wordCTK,colorCTK,corrAnsCTK,congruentCTK,wordPractice,colorPractice,congruentPractice,word,color,corrAns,congruent,trials_practice.thisRepN,trials_practice.thisTrialN,trials_practice.thisN,trials_test.thisRepN,trials_test.thisTrialN,trials_test.thisN,keyResp_test_run.keys,keyResp_test_run.corr,keyResp_test_run.rt,participant
NA,NA,NA,NA,NA,NA,NA,NA,NA,NA,NA,NA,NA,NA,NA,NA,NA,NA,NA,NA,sub-23394822
NA,NA,NA,NA,NA,NA,NA,NA,NA,NA,NA,NA,NA,NA,NA,NA,NA,NA,NA,NA,sub-23394822
test,blue,b,1,NA,NA,NA,NA,NA,NA,NA,NA,NA,NA,NA,NA,NA,NA,NA,NA,sub-23394822
test,red,r,1,NA,NA,NA,NA,NA,NA,NA,NA,NA,NA,NA,NA,NA,NA,NA,NA,sub-23394822
test,yellow,g,1,NA,NA,NA,NA,NA,NA,NA,NA,NA,NA,NA,NA,NA,NA,NA,NA,sub-23394822
test,blue,b,1,NA,NA,NA,NA,NA,NA,NA,NA,NA,NA,NA,NA,NA,NA,NA,NA,sub-23394822
test,yellow,g,1,NA,NA,NA,NA,NA,NA,NA,NA,NA,NA,NA,NA,NA,NA,NA,NA,sub-23394822
test,red,r,1,NA,NA,NA,NA,NA,NA,NA,NA,NA,NA,NA,NA,NA,NA,NA,NA,sub-23394822
test,yellow,g,1,NA,NA,NA,NA,NA,NA,NA,NA,NA,NA,NA,NA,NA,NA,NA,NA,sub-23394822
test,red,r,1,NA,NA,NA,NA,NA,NA,NA,NA,NA,NA,NA,NA,NA,NA,NA,NA,sub-23394822
test,blue,b,1,NA,NA,NA,NA,NA,NA,NA,NA,NA,NA,NA,NA,NA,NA,NA,NA,sub-23394822
test,yellow,g,1,NA,NA,NA,NA,NA,NA,NA,NA,NA,NA,NA,NA,NA,NA,NA,NA,sub-23394822
test,blue,b,1,NA,NA,NA,NA,NA,NA,NA,NA,NA,NA,NA,NA,NA,NA,NA,NA,sub-23394822
test,red,r,1,NA,NA,NA,NA,NA,NA,NA,NA,NA,NA,NA,NA,NA,NA,NA,NA,sub-23394822
NA,NA,NA,NA,NA,NA,NA,NA,NA,NA,NA,NA,NA,NA,NA,NA,NA,NA,NA,NA,sub-23394822
NA,NA,NA,NA,blau,red,0,NA,NA,NA,NA,0,0,0,NA,NA,NA,NA,NA,NA,sub-23394822
NA,NA,NA,NA,rot,yellow,0,NA,NA,NA,NA,0,1,1,NA,NA,NA,NA,NA,NA,sub-23394822
NA,NA,NA,NA,rot,red,1,NA,NA,NA,NA,0,2,2,NA,NA,NA,NA,NA,NA,sub-23394822
NA,NA,NA,NA,blau,blue,1,NA,NA,NA,NA,0,3,3,NA,NA,NA,NA,NA,NA,sub-23394822
NA,NA,NA,NA,gelb,yellow,1,NA,NA,NA,NA,0,4,4,NA,NA,NA,NA,NA,NA,sub-23394822
NA,NA,NA,NA,gelb,blue,0,NA,NA,NA,NA,0,5,5,NA,NA,NA,NA,NA,NA,sub-23394822
NA,NA,NA,NA,blau,blue,1,NA,NA,NA,NA,0,6,6,NA,NA,NA,NA,NA,NA,sub-23394822
NA,NA,NA,NA,gelb,red,0,NA,NA,NA,NA,0,7,7,NA,NA,NA,NA,NA,NA,sub-23394822
NA,NA,NA,NA,blau,yellow,0,NA,NA,NA,NA,0,8,8,NA,NA,NA,NA,NA,NA,sub-23394822
NA,NA,NA,NA,gelb,yellow,1,NA,NA,NA,NA,0,9,9,NA,NA,NA,NA,NA,NA,sub-23394822
NA,NA,NA,NA,rot,red,1,NA,NA,NA,NA,0,10,10,NA,NA,NA,NA,NA,NA,sub-23394822
NA,NA,NA,NA,rot,blue,0,NA,NA,NA,NA,0,11,11,NA,NA,NA,NA,NA,NA,sub-23394822
NA,NA,NA,NA,rot,yellow,0,NA,NA,NA,NA,1,0,12,NA,NA,NA,NA,NA,NA,sub-23394822
NA,NA,NA,NA,gelb,yellow,1,NA,NA,NA,NA,1,1,13,NA,NA,NA,NA,NA,NA,sub-23394822
NA,NA,NA,NA,gelb,red,0,NA,NA,NA,NA,1,2,14,NA,NA,NA,NA,NA,NA,sub-23394822
NA,NA,NA,NA,blau,blue,1,NA,NA,NA,NA,1,3,15,NA,NA,NA,NA,NA,NA,sub-23394822
NA,NA,NA,NA,rot,blue,0,NA,NA,NA,NA,1,4,16,NA,NA,NA,NA,NA,NA,sub-23394822
NA,NA,NA,NA,blau,blue,1,NA,NA,NA,NA,1,5,17,NA,NA,NA,NA,NA,NA,sub-23394822
NA,NA,NA,NA,blau,yellow,0,NA,NA,NA,NA,1,6,18,NA,NA,NA,NA,NA,NA,sub-23394822
NA,NA,NA,NA,gelb,blue,0,NA,NA,NA,NA,1,7,19,NA,NA,NA,NA,NA,NA,sub-23394822
NA,NA,NA,NA,blau,red,0,NA,NA,NA,NA,1,8,20,NA,NA,NA,NA,NA,NA,sub-23394822
NA,NA,NA,NA,rot,red,1,NA,NA,NA,NA,1,9,21,NA,NA,NA,NA,NA,NA,sub-23394822
NA,NA,NA,NA,gelb,yellow,1,NA,NA,NA,NA,1,10,22,NA,NA,NA,NA,NA,NA,sub-23394822
NA,NA,NA,NA,rot,red,1,NA,NA,NA,NA,1,11,23,NA,NA,NA,NA,NA,NA,sub-23394822
NA,NA,NA,NA,NA,NA,NA,NA,NA,NA,NA,NA,NA,NA,NA,NA,NA,NA,NA,NA,sub-23394822
NA,NA,NA,NA,NA,NA,NA,blau,blue,b,1,NA,NA,NA,0,0,0,b,1,0.8339509000070393,sub-23394822
NA,NA,NA,NA,NA,NA,NA,blau,yellow,g,0,NA,NA,NA,0,1,1,g,1,0.8970043999142945,sub-23394822
NA,NA,NA,NA,NA,NA,NA,gelb,yellow,g,1,NA,NA,NA,0,2,2,g,1,0.7415050999261439,sub-23394822
NA,NA,NA,NA,NA,NA,NA,blau,blue,b,1,NA,NA,NA,0,3,3,b,1,0.9315881002694368,sub-23394822
NA,NA,NA,NA,NA,NA,NA,gelb,red,r,0,NA,NA,NA,0,4,4,r,1,0.8681274997070432,sub-23394822
NA,NA,NA,NA,NA,NA,NA,rot,blue,b,0,NA,NA,NA,0,5,5,b,1,0.7806656998582184,sub-23394822
NA,NA,NA,NA,NA,NA,NA,rot,yellow,g,0,NA,NA,NA,0,6,6,g,1,0.9673239002004266,sub-23394822
NA,NA,NA,NA,NA,NA,NA,blau,red,r,0,NA,NA,NA,0,7,7,r,1,0.8722781999967992,sub-23394822
NA,NA,NA,NA,NA,NA,NA,gelb,yellow,g,1,NA,NA,NA,0,8,8,g,1,0.6282681999728084,sub-23394822
NA,NA,NA,NA,NA,NA,NA,rot,red,r,1,NA,NA,NA,0,9,9,r,1,1.7544538001529872,sub-23394822
NA,NA,NA,NA,NA,NA,NA,gelb,blue,b,0,NA,NA,NA,0,10,10,b,1,0.7443398996256292,sub-23394822
NA,NA,NA,NA,NA,NA,NA,rot,red,r,1,NA,NA,NA,0,11,11,r,1,0.6903180000372231,sub-23394822
NA,NA,NA,NA,NA,NA,NA,rot,blue,b,0,NA,NA,NA,1,0,12,b,1,0.788729699794203,sub-23394822
NA,NA,NA,NA,NA,NA,NA,rot,red,r,1,NA,NA,NA,1,1,13,r,1,0.7711126999929547,sub-23394822
NA,NA,NA,NA,NA,NA,NA,gelb,blue,b,0,NA,NA,NA,1,2,14,b,1,0.9496050998568536,sub-23394822
NA,NA,NA,NA,NA,NA,NA,blau,red,r,0,NA,NA,NA,1,3,15,r,1,1.0916899000294509,sub-23394822
NA,NA,NA,NA,NA,NA,NA,blau,yellow,g,0,NA,NA,NA,1,4,16,g,1,0.7353730998001993,sub-23394822
NA,NA,NA,NA,NA,NA,NA,blau,blue,b,1,NA,NA,NA,1,5,17,b,1,1.093120800331235,sub-23394822
NA,NA,NA,NA,NA,NA,NA,rot,yellow,g,0,NA,NA,NA,1,6,18,g,1,1.0836209999397397,sub-23394822
NA,NA,NA,NA,NA,NA,NA,gelb,yellow,g,1,NA,NA,NA,1,7,19,g,1,0.783995300065726,sub-23394822
NA,NA,NA,NA,NA,NA,NA,rot,red,r,1,NA,NA,NA,1,8,20,r,1,1.2580769998021424,sub-23394822
NA,NA,NA,NA,NA,NA,NA,gelb,yellow,g,1,NA,NA,NA,1,9,21,g,1,0.7345698000863194,sub-23394822
NA,NA,NA,NA,NA,NA,NA,blau,blue,b,1,NA,NA,NA,1,10,22,b,1,0.7174073997884989,sub-23394822
NA,NA,NA,NA,NA,NA,NA,gelb,red,r,0,NA,NA,NA,1,11,23,r,1,0.7168968999758363,sub-23394822
NA,NA,NA,NA,NA,NA,NA,blau,red,r,0,NA,NA,NA,2,0,24,r,1,0.8834334001876414,sub-23394822
NA,NA,NA,NA,NA,NA,NA,rot,red,r,1,NA,NA,NA,2,1,25,r,1,0.6714155999943614,sub-23394822
NA,NA,NA,NA,NA,NA,NA,gelb,red,r,0,NA,NA,NA,2,2,26,r,1,0.8645270001143217,sub-23394822
NA,NA,NA,NA,NA,NA,NA,gelb,yellow,g,1,NA,NA,NA,2,3,27,g,1,1.2606166996993124,sub-23394822
NA,NA,NA,NA,NA,NA,NA,rot,blue,b,0,NA,NA,NA,2,4,28,b,1,0.5282475999556482,sub-23394822
NA,NA,NA,NA,NA,NA,NA,blau,blue,b,1,NA,NA,NA,2,5,29,b,1,0.6905475999228656,sub-23394822
NA,NA,NA,NA,NA,NA,NA,blau,blue,b,1,NA,NA,NA,2,6,30,b,1,0.6024918002076447,sub-23394822
NA,NA,NA,NA,NA,NA,NA,blau,yellow,g,0,NA,NA,NA,2,7,31,g,1,0.7789141000248492,sub-23394822
NA,NA,NA,NA,NA,NA,NA,gelb,yellow,g,1,NA,NA,NA,2,8,32,g,1,0.6832039998844266,sub-23394822
NA,NA,NA,NA,NA,NA,NA,gelb,blue,b,0,NA,NA,NA,2,9,33,b,1,0.6983545999974012,sub-23394822
NA,NA,NA,NA,NA,NA,NA,rot,red,r,1,NA,NA,NA,2,10,34,r,1,0.7575791999697685,sub-23394822
NA,NA,NA,NA,NA,NA,NA,rot,yellow,g,0,NA,NA,NA,2,11,35,g,1,0.9346210001967848,sub-23394822
NA,NA,NA,NA,NA,NA,NA,gelb,yellow,g,1,NA,NA,NA,3,0,36,g,1,0.590699499938637,sub-23394822
NA,NA,NA,NA,NA,NA,NA,rot,blue,b,0,NA,NA,NA,3,1,37,b,1,0.949531199876219,sub-23394822
NA,NA,NA,NA,NA,NA,NA,rot,red,r,1,NA,NA,NA,3,2,38,r,1,1.3900303998962045,sub-23394822
NA,NA,NA,NA,NA,NA,NA,blau,yellow,g,0,NA,NA,NA,3,3,39,g,1,0.9618746000342072,sub-23394822
NA,NA,NA,NA,NA,NA,NA,gelb,red,r,0,NA,NA,NA,3,4,40,r,1,0.7170613999478519,sub-23394822
NA,NA,NA,NA,NA,NA,NA,rot,red,r,1,NA,NA,NA,3,5,41,r,1,0.7661146000027657,sub-23394822
NA,NA,NA,NA,NA,NA,NA,rot,yellow,g,0,NA,NA,NA,3,6,42,g,1,0.7223225999623537,sub-23394822
NA,NA,NA,NA,NA,NA,NA,blau,blue,b,1,NA,NA,NA,3,7,43,b,1,0.7600401001982391,sub-23394822
NA,NA,NA,NA,NA,NA,NA,blau,red,r,0,NA,NA,NA,3,8,44,r,1,0.7782894000411034,sub-23394822
NA,NA,NA,NA,NA,NA,NA,gelb,blue,b,0,NA,NA,NA,3,9,45,b,1,0.6865387996658683,sub-23394822
NA,NA,NA,NA,NA,NA,NA,blau,blue,b,1,NA,NA,NA,3,10,46,b,1,0.5956569002009928,sub-23394822
NA,NA,NA,NA,NA,NA,NA,gelb,yellow,g,1,NA,NA,NA,3,11,47,g,1,0.8345466996543109,sub-23394822
NA,NA,NA,NA,NA,NA,NA,blau,blue,b,1,NA,NA,NA,4,0,48,b,1,0.5990891996771097,sub-23394822
NA,NA,NA,NA,NA,NA,NA,blau,yellow,g,0,NA,NA,NA,4,1,49,g,1,0.8397436998784542,sub-23394822
NA,NA,NA,NA,NA,NA,NA,blau,red,r,0,NA,NA,NA,4,2,50,r,1,0.545911299996078,sub-23394822
NA,NA,NA,NA,NA,NA,NA,rot,blue,b,0,NA,NA,NA,4,3,51,b,1,1.0168965999037027,sub-23394822
NA,NA,NA,NA,NA,NA,NA,gelb,yellow,g,1,NA,NA,NA,4,4,52,g,1,0.6884365999139845,sub-23394822
NA,NA,NA,NA,NA,NA,NA,gelb,blue,b,0,NA,NA,NA,4,5,53,b,1,0.6498120999895036,sub-23394822
NA,NA,NA,NA,NA,NA,NA,rot,yellow,g,0,NA,NA,NA,4,6,54,g,1,0.831935300026089,sub-23394822
NA,NA,NA,NA,NA,NA,NA,gelb,red,r,0,NA,NA,NA,4,7,55,r,1,0.8391547002829611,sub-23394822
NA,NA,NA,NA,NA,NA,NA,blau,blue,b,1,NA,NA,NA,4,8,56,b,1,0.6284405998885632,sub-23394822
NA,NA,NA,NA,NA,NA,NA,rot,red,r,1,NA,NA,NA,4,9,57,r,1,0.91703059989959,sub-23394822
NA,NA,NA,NA,NA,NA,NA,gelb,yellow,g,1,NA,NA,NA,4,10,58,g,1,0.6649107001721859,sub-23394822
NA,NA,NA,NA,NA,NA,NA,rot,red,r,1,NA,NA,NA,4,11,59,r,1,0.7941555003635585,sub-23394822
NA,NA,NA,NA,NA,NA,NA,gelb,yellow,g,1,NA,NA,NA,5,0,60,g,1,0.5912815998308361,sub-23394822
NA,NA,NA,NA,NA,NA,NA,blau,yellow,g,0,NA,NA,NA,5,1,61,g,1,0.9413848002441229,sub-23394822
NA,NA,NA,NA,NA,NA,NA,blau,blue,b,1,NA,NA,NA,5,2,62,b,1,0.6874685999937356,sub-23394822
NA,NA,NA,NA,NA,NA,NA,blau,red,r,0,NA,NA,NA,5,3,63,r,1,1.0784163000062108,sub-23394822
NA,NA,NA,NA,NA,NA,NA,gelb,yellow,g,1,NA,NA,NA,5,4,64,g,1,0.7795903002843261,sub-23394822
NA,NA,NA,NA,NA,NA,NA,rot,yellow,g,0,NA,NA,NA,5,5,65,g,1,1.1451835995540025,sub-23394822
NA,NA,NA,NA,NA,NA,NA,rot,red,r,1,NA,NA,NA,5,6,66,r,1,0.9524991000071168,sub-23394822
NA,NA,NA,NA,NA,NA,NA,blau,blue,b,1,NA,NA,NA,5,7,67,b,1,0.6957578998990357,sub-23394822
NA,NA,NA,NA,NA,NA,NA,rot,blue,b,0,NA,NA,NA,5,8,68,b,1,0.7520237998105586,sub-23394822
NA,NA,NA,NA,NA,NA,NA,gelb,red,r,0,NA,NA,NA,5,9,69,r,1,1.5001761000603435,sub-23394822
NA,NA,NA,NA,NA,NA,NA,gelb,blue,b,0,NA,NA,NA,5,10,70,b,1,0.6535251000896096,sub-23394822
NA,NA,NA,NA,NA,NA,NA,rot,red,r,1,NA,NA,NA,5,11,71,r,1,1.0748233003541827,sub-23394822
NA,NA,NA,NA,NA,NA,NA,blau,blue,b,1,NA,NA,NA,6,0,72,b,1,0.6536178002133965,sub-23394822
NA,NA,NA,NA,NA,NA,NA,gelb,blue,b,0,NA,NA,NA,6,1,73,b,1,0.7964399997144938,sub-23394822
NA,NA,NA,NA,NA,NA,NA,gelb,yellow,g,1,NA,NA,NA,6,2,74,g,1,0.8399002002552152,sub-23394822
NA,NA,NA,NA,NA,NA,NA,gelb,red,r,0,NA,NA,NA,6,3,75,r,1,0.6957906000316143,sub-23394822
NA,NA,NA,NA,NA,NA,NA,blau,blue,b,1,NA,NA,NA,6,4,76,b,1,0.7735812002792954,sub-23394822
NA,NA,NA,NA,NA,NA,NA,rot,blue,b,0,NA,NA,NA,6,5,77,b,1,1.1001573000103235,sub-23394822
NA,NA,NA,NA,NA,NA,NA,rot,red,r,1,NA,NA,NA,6,6,78,r,1,0.7455756003037095,sub-23394822
NA,NA,NA,NA,NA,NA,NA,rot,red,r,1,NA,NA,NA,6,7,79,r,1,0.6265116999857128,sub-23394822
NA,NA,NA,NA,NA,NA,NA,rot,yellow,g,0,NA,NA,NA,6,8,80,g,1,0.6213835999369621,sub-23394822
NA,NA,NA,NA,NA,NA,NA,gelb,yellow,g,1,NA,NA,NA,6,9,81,g,1,0.7173033999279141,sub-23394822
NA,NA,NA,NA,NA,NA,NA,blau,red,r,0,NA,NA,NA,6,10,82,b,0,0.7360209003090858,sub-23394822
NA,NA,NA,NA,NA,NA,NA,blau,yellow,g,0,NA,NA,NA,6,11,83,g,1,1.191992899868637,sub-23394822
NA,NA,NA,NA,NA,NA,NA,blau,blue,b,1,NA,NA,NA,7,0,84,b,1,0.6461888998746872,sub-23394822
NA,NA,NA,NA,NA,NA,NA,rot,red,r,1,NA,NA,NA,7,1,85,r,1,1.0237501999363303,sub-23394822
NA,NA,NA,NA,NA,NA,NA,blau,red,r,0,NA,NA,NA,7,2,86,r,1,1.4969782000407577,sub-23394822
NA,NA,NA,NA,NA,NA,NA,gelb,red,r,0,NA,NA,NA,7,3,87,r,1,0.6634766003116965,sub-23394822
NA,NA,NA,NA,NA,NA,NA,rot,red,r,1,NA,NA,NA,7,4,88,r,1,1.0191097999922931,sub-23394822
NA,NA,NA,NA,NA,NA,NA,gelb,yellow,g,1,NA,NA,NA,7,5,89,g,1,0.7337735001929104,sub-23394822
NA,NA,NA,NA,NA,NA,NA,rot,yellow,g,0,NA,NA,NA,7,6,90,g,1,0.7784529998898506,sub-23394822
NA,NA,NA,NA,NA,NA,NA,gelb,blue,b,0,NA,NA,NA,7,7,91,b,1,0.8907862002961338,sub-23394822
NA,NA,NA,NA,NA,NA,NA,blau,blue,b,1,NA,NA,NA,7,8,92,b,1,1.0191476000472903,sub-23394822
NA,NA,NA,NA,NA,NA,NA,blau,yellow,g,0,NA,NA,NA,7,9,93,g,1,1.2604431002400815,sub-23394822
NA,NA,NA,NA,NA,NA,NA,rot,blue,b,0,NA,NA,NA,7,10,94,b,1,0.7212471999228001,sub-23394822
NA,NA,NA,NA,NA,NA,NA,gelb,yellow,g,1,NA,NA,NA,7,11,95,g,1,0.9486206998117268,sub-23394822
NA,NA,NA,NA,NA,NA,NA,gelb,yellow,g,1,NA,NA,NA,8,0,96,g,1,0.7787774000316858,sub-23394822
NA,NA,NA,NA,NA,NA,NA,rot,red,r,1,NA,NA,NA,8,1,97,r,1,0.5789771000854671,sub-23394822
NA,NA,NA,NA,NA,NA,NA,blau,red,r,0,NA,NA,NA,8,2,98,r,1,0.7550009000115097,sub-23394822
NA,NA,NA,NA,NA,NA,NA,gelb,red,r,0,NA,NA,NA,8,3,99,r,1,0.6299931001849473,sub-23394822
NA,NA,NA,NA,NA,NA,NA,rot,yellow,g,0,NA,NA,NA,8,4,100,g,1,0.6938636996783316,sub-23394822
NA,NA,NA,NA,NA,NA,NA,gelb,yellow,g,1,NA,NA,NA,8,5,101,g,1,0.8253394002094865,sub-23394822
NA,NA,NA,NA,NA,NA,NA,rot,red,r,1,NA,NA,NA,8,6,102,r,1,0.924010899849236,sub-23394822
NA,NA,NA,NA,NA,NA,NA,rot,blue,b,0,NA,NA,NA,8,7,103,b,1,0.5650980002246797,sub-23394822
NA,NA,NA,NA,NA,NA,NA,blau,blue,b,1,NA,NA,NA,8,8,104,b,1,0.4906896003521979,sub-23394822
NA,NA,NA,NA,NA,NA,NA,blau,blue,b,1,NA,NA,NA,8,9,105,b,1,0.4597448999993503,sub-23394822
NA,NA,NA,NA,NA,NA,NA,gelb,blue,b,0,NA,NA,NA,8,10,106,b,1,0.8138464000076056,sub-23394822
NA,NA,NA,NA,NA,NA,NA,blau,yellow,g,0,NA,NA,NA,8,11,107,g,1,1.111429899930954,sub-23394822
NA,NA,NA,NA,NA,NA,NA,gelb,yellow,g,1,NA,NA,NA,9,0,108,g,1,0.4617217001505196,sub-23394822
NA,NA,NA,NA,NA,NA,NA,blau,yellow,g,0,NA,NA,NA,9,1,109,g,1,0.4379139998927712,sub-23394822
NA,NA,NA,NA,NA,NA,NA,gelb,red,r,0,NA,NA,NA,9,2,110,r,1,0.4822887000627816,sub-23394822
NA,NA,NA,NA,NA,NA,NA,rot,red,r,1,NA,NA,NA,9,3,111,r,1,0.4052083999849856,sub-23394822
NA,NA,NA,NA,NA,NA,NA,gelb,yellow,g,1,NA,NA,NA,9,4,112,g,1,0.6402505999431014,sub-23394822
NA,NA,NA,NA,NA,NA,NA,gelb,blue,b,0,NA,NA,NA,9,5,113,b,1,0.5910490998066962,sub-23394822
NA,NA,NA,NA,NA,NA,NA,blau,blue,b,1,NA,NA,NA,9,6,114,b,1,0.4719801996834576,sub-23394822
NA,NA,NA,NA,NA,NA,NA,rot,red,r,1,NA,NA,NA,9,7,115,r,1,1.5830732001923025,sub-23394822
NA,NA,NA,NA,NA,NA,NA,rot,blue,b,0,NA,NA,NA,9,8,116,b,1,1.5587615999393163,sub-23394822
NA,NA,NA,NA,NA,NA,NA,blau,blue,b,1,NA,NA,NA,9,9,117,b,1,0.5799290002323687,sub-23394822
NA,NA,NA,NA,NA,NA,NA,rot,yellow,g,0,NA,NA,NA,9,10,118,r,0,1.7550364001654088,sub-23394822
NA,NA,NA,NA,NA,NA,NA,blau,red,r,0,NA,NA,NA,9,11,119,r,1,1.5765551002696157,sub-23394822
NA,NA,NA,NA,NA,NA,NA,NA,NA,NA,NA,NA,NA,NA,NA,NA,NA,NA,NA,NA,sub-23394822
