wordCTK,colorCTK,corrAnsCTK,congruentCTK,wordPractice,colorPractice,congruentPractice,word,color,corrAns,congruent,trials_practice.thisRepN,trials_practice.thisTrialN,trials_practice.thisN,trials_test.thisRepN,trials_test.thisTrialN,trials_test.thisN,keyResp_test_run.keys,keyResp_test_run.corr,keyResp_test_run.rt,participant
NA,NA,NA,NA,NA,NA,NA,NA,NA,NA,NA,NA,NA,NA,NA,NA,NA,NA,NA,NA,sub-93089749
NA,NA,NA,NA,NA,NA,NA,NA,NA,NA,NA,NA,NA,NA,NA,NA,NA,NA,NA,NA,sub-93089749
test,red,r,1,NA,NA,NA,NA,NA,NA,NA,NA,NA,NA,NA,NA,NA,NA,NA,NA,sub-93089749
test,yellow,g,1,NA,NA,NA,NA,NA,NA,NA,NA,NA,NA,NA,NA,NA,NA,NA,NA,sub-93089749
test,blue,b,1,NA,NA,NA,NA,NA,NA,NA,NA,NA,NA,NA,NA,NA,NA,NA,NA,sub-93089749
test,yellow,g,1,NA,NA,NA,NA,NA,NA,NA,NA,NA,NA,NA,NA,NA,NA,NA,NA,sub-93089749
test,blue,b,1,NA,NA,NA,NA,NA,NA,NA,NA,NA,NA,NA,NA,NA,NA,NA,NA,sub-93089749
test,red,r,1,NA,NA,NA,NA,NA,NA,NA,NA,NA,NA,NA,NA,NA,NA,NA,NA,sub-93089749
test,blue,b,1,NA,NA,NA,NA,NA,NA,NA,NA,NA,NA,NA,NA,NA,NA,NA,NA,sub-93089749
test,red,r,1,NA,NA,NA,NA,NA,NA,NA,NA,NA,NA,NA,NA,NA,NA,NA,NA,sub-93089749
test,yellow,g,1,NA,NA,NA,NA,NA,NA,NA,NA,NA,NA,NA,NA,NA,NA,NA,NA,sub-93089749
test,yellow,g,1,NA,NA,NA,NA,NA,NA,NA,NA,NA,NA,NA,NA,NA,NA,NA,NA,sub-93089749
test,blue,b,1,NA,NA,NA,NA,NA,NA,NA,NA,NA,NA,NA,NA,NA,NA,NA,NA,sub-93089749
test,red,r,1,NA,NA,NA,NA,NA,NA,NA,NA,NA,NA,NA,NA,NA,NA,NA,NA,sub-93089749
NA,NA,NA,NA,NA,NA,NA,NA,NA,NA,NA,NA,NA,NA,NA,NA,NA,NA,NA,NA,sub-93089749
NA,NA,NA,NA,gelb,yellow,1,NA,NA,NA,NA,0,0,0,NA,NA,NA,NA,NA,NA,sub-93089749
NA,NA,NA,NA,blau,blue,1,NA,NA,NA,NA,0,1,1,NA,NA,NA,NA,NA,NA,sub-93089749
NA,NA,NA,NA,gelb,yellow,1,NA,NA,NA,NA,0,2,2,NA,NA,NA,NA,NA,NA,sub-93089749
NA,NA,NA,NA,gelb,blue,0,NA,NA,NA,NA,0,3,3,NA,NA,NA,NA,NA,NA,sub-93089749
NA,NA,NA,NA,rot,red,1,NA,NA,NA,NA,0,4,4,NA,NA,NA,NA,NA,NA,sub-93089749
NA,NA,NA,NA,gelb,red,0,NA,NA,NA,NA,0,5,5,NA,NA,NA,NA,NA,NA,sub-93089749
NA,NA,NA,NA,blau,blue,1,NA,NA,NA,NA,0,6,6,NA,NA,NA,NA,NA,NA,sub-93089749
NA,NA,NA,NA,rot,red,1,NA,NA,NA,NA,0,7,7,NA,NA,NA,NA,NA,NA,sub-93089749
NA,NA,NA,NA,rot,blue,0,NA,NA,NA,NA,0,8,8,NA,NA,NA,NA,NA,NA,sub-93089749
NA,NA,NA,NA,blau,red,0,NA,NA,NA,NA,0,9,9,NA,NA,NA,NA,NA,NA,sub-93089749
NA,NA,NA,NA,rot,yellow,0,NA,NA,NA,NA,0,10,10,NA,NA,NA,NA,NA,NA,sub-93089749
NA,NA,NA,NA,blau,yellow,0,NA,NA,NA,NA,0,11,11,NA,NA,NA,NA,NA,NA,sub-93089749
NA,NA,NA,NA,rot,blue,0,NA,NA,NA,NA,1,0,12,NA,NA,NA,NA,NA,NA,sub-93089749
NA,NA,NA,NA,rot,yellow,0,NA,NA,NA,NA,1,1,13,NA,NA,NA,NA,NA,NA,sub-93089749
NA,NA,NA,NA,rot,red,1,NA,NA,NA,NA,1,2,14,NA,NA,NA,NA,NA,NA,sub-93089749
NA,NA,NA,NA,gelb,blue,0,NA,NA,NA,NA,1,3,15,NA,NA,NA,NA,NA,NA,sub-93089749
NA,NA,NA,NA,blau,yellow,0,NA,NA,NA,NA,1,4,16,NA,NA,NA,NA,NA,NA,sub-93089749
NA,NA,NA,NA,gelb,red,0,NA,NA,NA,NA,1,5,17,NA,NA,NA,NA,NA,NA,sub-93089749
NA,NA,NA,NA,blau,blue,1,NA,NA,NA,NA,1,6,18,NA,NA,NA,NA,NA,NA,sub-93089749
NA,NA,NA,NA,blau,blue,1,NA,NA,NA,NA,1,7,19,NA,NA,NA,NA,NA,NA,sub-93089749
NA,NA,NA,NA,gelb,yellow,1,NA,NA,NA,NA,1,8,20,NA,NA,NA,NA,NA,NA,sub-93089749
NA,NA,NA,NA,rot,red,1,NA,NA,NA,NA,1,9,21,NA,NA,NA,NA,NA,NA,sub-93089749
NA,NA,NA,NA,gelb,yellow,1,NA,NA,NA,NA,1,10,22,NA,NA,NA,NA,NA,NA,sub-93089749
NA,NA,NA,NA,blau,red,0,NA,NA,NA,NA,1,11,23,NA,NA,NA,NA,NA,NA,sub-93089749
NA,NA,NA,NA,NA,NA,NA,NA,NA,NA,NA,NA,NA,NA,NA,NA,NA,NA,NA,NA,sub-93089749
NA,NA,NA,NA,NA,NA,NA,gelb,yellow,g,1,NA,NA,NA,0,0,0,g,1,0.4486258670076495,sub-93089749
NA,NA,NA,NA,NA,NA,NA,gelb,blue,b,0,NA,NA,NA,0,1,1,b,1,0.4538840230088681,sub-93089749
NA,NA,NA,NA,NA,NA,NA,rot,red,r,1,NA,NA,NA,0,2,2,r,1,0.4098349880077876,sub-93089749
NA,NA,NA,NA,NA,NA,NA,rot,yellow,g,0,NA,NA,NA,0,3,3,g,1,1.0138074459973725,sub-93089749
NA,NA,NA,NA,NA,NA,NA,rot,blue,b,0,NA,NA,NA,0,4,4,b,1,0.6447882229986135,sub-93089749
NA,NA,NA,NA,NA,NA,NA,gelb,red,r,0,NA,NA,NA,0,5,5,r,1,0.8195144229975995,sub-93089749
NA,NA,NA,NA,NA,NA,NA,blau,blue,b,1,NA,NA,NA,0,6,6,b,1,0.7539863499987405,sub-93089749
NA,NA,NA,NA,NA,NA,NA,rot,red,r,1,NA,NA,NA,0,7,7,r,1,1.3421490790060489,sub-93089749
NA,NA,NA,NA,NA,NA,NA,blau,blue,b,1,NA,NA,NA,0,8,8,b,1,0.7849036499974318,sub-93089749
NA,NA,NA,NA,NA,NA,NA,blau,red,r,0,NA,NA,NA,0,9,9,r,1,0.8353773569979239,sub-93089749
NA,NA,NA,NA,NA,NA,NA,blau,yellow,g,0,NA,NA,NA,0,10,10,g,1,0.46648551600810606,sub-93089749
NA,NA,NA,NA,NA,NA,NA,gelb,yellow,g,1,NA,NA,NA,0,11,11,g,1,0.48765232400910463,sub-93089749
NA,NA,NA,NA,NA,NA,NA,rot,red,r,1,NA,NA,NA,1,0,12,r,1,0.8248118260089541,sub-93089749
NA,NA,NA,NA,NA,NA,NA,rot,red,r,1,NA,NA,NA,1,1,13,r,1,0.7443500500085065,sub-93089749
NA,NA,NA,NA,NA,NA,NA,rot,yellow,g,0,NA,NA,NA,1,2,14,g,1,0.5348804669920355,sub-93089749
NA,NA,NA,NA,NA,NA,NA,blau,blue,b,1,NA,NA,NA,1,3,15,b,1,0.3618255399924238,sub-93089749
NA,NA,NA,NA,NA,NA,NA,gelb,yellow,g,1,NA,NA,NA,1,4,16,g,1,0.4924763410090236,sub-93089749
NA,NA,NA,NA,NA,NA,NA,blau,blue,b,1,NA,NA,NA,1,5,17,b,1,0.5090311179956188,sub-93089749
NA,NA,NA,NA,NA,NA,NA,rot,blue,b,0,NA,NA,NA,1,6,18,b,1,0.6030966959951911,sub-93089749
NA,NA,NA,NA,NA,NA,NA,gelb,yellow,g,1,NA,NA,NA,1,7,19,g,1,0.6397575629962375,sub-93089749
NA,NA,NA,NA,NA,NA,NA,blau,yellow,g,0,NA,NA,NA,1,8,20,g,1,0.7534537449973868,sub-93089749
NA,NA,NA,NA,NA,NA,NA,gelb,blue,b,0,NA,NA,NA,1,9,21,b,1,0.6907429699931527,sub-93089749
NA,NA,NA,NA,NA,NA,NA,gelb,red,r,0,NA,NA,NA,1,10,22,r,1,0.467999989996315,sub-93089749
NA,NA,NA,NA,NA,NA,NA,blau,red,r,0,NA,NA,NA,1,11,23,r,1,0.4707170269975904,sub-93089749
NA,NA,NA,NA,NA,NA,NA,blau,blue,b,1,NA,NA,NA,2,0,24,b,1,0.5902407180110458,sub-93089749
NA,NA,NA,NA,NA,NA,NA,gelb,blue,b,0,NA,NA,NA,2,1,25,b,1,1.4354516829916977,sub-93089749
NA,NA,NA,NA,NA,NA,NA,rot,blue,b,0,NA,NA,NA,2,2,26,b,1,0.7267600429913728,sub-93089749
NA,NA,NA,NA,NA,NA,NA,gelb,red,r,0,NA,NA,NA,2,3,27,r,1,0.32838416000595316,sub-93089749
NA,NA,NA,NA,NA,NA,NA,gelb,yellow,g,1,NA,NA,NA,2,4,28,g,1,0.4329649599967525,sub-93089749
NA,NA,NA,NA,NA,NA,NA,gelb,yellow,g,1,NA,NA,NA,2,5,29,g,1,0.4789786610053852,sub-93089749
NA,NA,NA,NA,NA,NA,NA,rot,red,r,1,NA,NA,NA,2,6,30,r,1,0.606059578989516,sub-93089749
NA,NA,NA,NA,NA,NA,NA,rot,red,r,1,NA,NA,NA,2,7,31,r,1,0.5014230440137908,sub-93089749
NA,NA,NA,NA,NA,NA,NA,blau,yellow,g,0,NA,NA,NA,2,8,32,g,1,0.4710692689986899,sub-93089749
NA,NA,NA,NA,NA,NA,NA,blau,blue,b,1,NA,NA,NA,2,9,33,b,1,0.4237582899950212,sub-93089749
NA,NA,NA,NA,NA,NA,NA,rot,yellow,g,0,NA,NA,NA,2,10,34,g,1,0.4822021110012429,sub-93089749
NA,NA,NA,NA,NA,NA,NA,blau,red,r,0,NA,NA,NA,2,11,35,r,1,0.36395470100978855,sub-93089749
NA,NA,NA,NA,NA,NA,NA,blau,blue,b,1,NA,NA,NA,3,0,36,b,1,0.5154319630091777,sub-93089749
NA,NA,NA,NA,NA,NA,NA,blau,red,r,0,NA,NA,NA,3,1,37,r,1,0.5243491489964072,sub-93089749
NA,NA,NA,NA,NA,NA,NA,rot,yellow,g,0,NA,NA,NA,3,2,38,g,1,0.4358206619945122,sub-93089749
NA,NA,NA,NA,NA,NA,NA,rot,red,r,1,NA,NA,NA,3,3,39,r,1,0.5269467999896733,sub-93089749
NA,NA,NA,NA,NA,NA,NA,gelb,blue,b,0,NA,NA,NA,3,4,40,b,1,0.46055771999817807,sub-93089749
NA,NA,NA,NA,NA,NA,NA,gelb,yellow,g,1,NA,NA,NA,3,5,41,g,1,0.7420180460030679,sub-93089749
NA,NA,NA,NA,NA,NA,NA,rot,blue,b,0,NA,NA,NA,3,6,42,b,1,0.7196835770009784,sub-93089749
NA,NA,NA,NA,NA,NA,NA,blau,yellow,g,0,NA,NA,NA,3,7,43,g,1,0.896669149005902,sub-93089749
NA,NA,NA,NA,NA,NA,NA,rot,red,r,1,NA,NA,NA,3,8,44,r,1,0.6737502659962047,sub-93089749
NA,NA,NA,NA,NA,NA,NA,gelb,red,r,0,NA,NA,NA,3,9,45,r,1,0.5467758699960541,sub-93089749
NA,NA,NA,NA,NA,NA,NA,gelb,yellow,g,1,NA,NA,NA,3,10,46,g,1,0.797914711991325,sub-93089749
NA,NA,NA,NA,NA,NA,NA,blau,blue,b,1,NA,NA,NA,3,11,47,b,1,0.7175289130100282,sub-93089749
NA,NA,NA,NA,NA,NA,NA,blau,red,r,0,NA,NA,NA,4,0,48,r,1,1.1566414639964933,sub-93089749
NA,NA,NA,NA,NA,NA,NA,rot,yellow,g,0,NA,NA,NA,4,1,49,g,1,1.6351673860044684,sub-93089749
NA,NA,NA,NA,NA,NA,NA,rot,red,r,1,NA,NA,NA,4,2,50,r,1,0.36964530100522097,sub-93089749
NA,NA,NA,NA,NA,NA,NA,rot,red,r,1,NA,NA,NA,4,3,51,r,1,0.5472246129938867,sub-93089749
NA,NA,NA,NA,NA,NA,NA,rot,blue,b,0,NA,NA,NA,4,4,52,b,1,0.40381176098890137,sub-93089749
NA,NA,NA,NA,NA,NA,NA,gelb,red,r,0,NA,NA,NA,4,5,53,r,1,0.6977587949950248,sub-93089749
NA,NA,NA,NA,NA,NA,NA,gelb,yellow,g,1,NA,NA,NA,4,6,54,g,1,0.49714742800279055,sub-93089749
NA,NA,NA,NA,NA,NA,NA,blau,yellow,g,0,NA,NA,NA,4,7,55,g,1,0.5404816969967214,sub-93089749
NA,NA,NA,NA,NA,NA,NA,blau,blue,b,1,NA,NA,NA,4,8,56,b,1,0.5931365870055743,sub-93089749
NA,NA,NA,NA,NA,NA,NA,blau,blue,b,1,NA,NA,NA,4,9,57,b,1,0.8748558130027959,sub-93089749
NA,NA,NA,NA,NA,NA,NA,gelb,yellow,g,1,NA,NA,NA,4,10,58,g,1,0.7371047009946778,sub-93089749
NA,NA,NA,NA,NA,NA,NA,gelb,blue,b,0,NA,NA,NA,4,11,59,b,1,0.6961622499948135,sub-93089749
NA,NA,NA,NA,NA,NA,NA,rot,blue,b,0,NA,NA,NA,5,0,60,b,1,1.0089141149946954,sub-93089749
NA,NA,NA,NA,NA,NA,NA,blau,blue,b,1,NA,NA,NA,5,1,61,b,1,0.46744811900134664,sub-93089749
NA,NA,NA,NA,NA,NA,NA,gelb,red,r,0,NA,NA,NA,5,2,62,r,1,0.46889931699843146,sub-93089749
NA,NA,NA,NA,NA,NA,NA,blau,red,r,0,NA,NA,NA,5,3,63,r,1,0.5923793920082971,sub-93089749
NA,NA,NA,NA,NA,NA,NA,rot,yellow,g,0,NA,NA,NA,5,4,64,g,1,0.6412892850057688,sub-93089749
NA,NA,NA,NA,NA,NA,NA,blau,blue,b,1,NA,NA,NA,5,5,65,b,1,0.38688055900274776,sub-93089749
NA,NA,NA,NA,NA,NA,NA,blau,yellow,g,0,NA,NA,NA,5,6,66,g,1,0.6955219939991366,sub-93089749
NA,NA,NA,NA,NA,NA,NA,gelb,yellow,g,1,NA,NA,NA,5,7,67,b,0,0.5086678199877497,sub-93089749
NA,NA,NA,NA,NA,NA,NA,rot,red,r,1,NA,NA,NA,5,8,68,r,1,0.5503055479930481,sub-93089749
NA,NA,NA,NA,NA,NA,NA,rot,red,r,1,NA,NA,NA,5,9,69,r,1,0.5661999579897383,sub-93089749
NA,NA,NA,NA,NA,NA,NA,gelb,blue,b,0,NA,NA,NA,5,10,70,b,1,0.6028787050017854,sub-93089749
NA,NA,NA,NA,NA,NA,NA,gelb,yellow,g,1,NA,NA,NA,5,11,71,g,1,0.6281315570086008,sub-93089749
NA,NA,NA,NA,NA,NA,NA,gelb,blue,b,0,NA,NA,NA,6,0,72,b,1,0.5400923639972461,sub-93089749
NA,NA,NA,NA,NA,NA,NA,rot,red,r,1,NA,NA,NA,6,1,73,r,1,0.450023251993116,sub-93089749
NA,NA,NA,NA,NA,NA,NA,rot,yellow,g,0,NA,NA,NA,6,2,74,g,1,0.46744814098929055,sub-93089749
NA,NA,NA,NA,NA,NA,NA,gelb,yellow,g,1,NA,NA,NA,6,3,75,g,1,0.5639790150016779,sub-93089749
NA,NA,NA,NA,NA,NA,NA,rot,red,r,1,NA,NA,NA,6,4,76,r,1,0.6224015659972792,sub-93089749
NA,NA,NA,NA,NA,NA,NA,blau,blue,b,1,NA,NA,NA,6,5,77,b,1,0.31816404599521775,sub-93089749
NA,NA,NA,NA,NA,NA,NA,gelb,yellow,g,1,NA,NA,NA,6,6,78,g,1,0.6314986020006472,sub-93089749
NA,NA,NA,NA,NA,NA,NA,blau,yellow,g,0,NA,NA,NA,6,7,79,g,1,0.6865742969966959,sub-93089749
NA,NA,NA,NA,NA,NA,NA,gelb,red,r,0,NA,NA,NA,6,8,80,r,1,0.4961628790042596,sub-93089749
NA,NA,NA,NA,NA,NA,NA,rot,blue,b,0,NA,NA,NA,6,9,81,b,1,0.3393471059971489,sub-93089749
NA,NA,NA,NA,NA,NA,NA,blau,red,r,0,NA,NA,NA,6,10,82,g,0,0.5953344800072955,sub-93089749
NA,NA,NA,NA,NA,NA,NA,blau,blue,b,1,NA,NA,NA,6,11,83,b,1,0.6668147910095286,sub-93089749
NA,NA,NA,NA,NA,NA,NA,rot,blue,b,0,NA,NA,NA,7,0,84,r,0,0.5694219600118231,sub-93089749
NA,NA,NA,NA,NA,NA,NA,blau,blue,b,1,NA,NA,NA,7,1,85,b,1,0.786420411997824,sub-93089749
NA,NA,NA,NA,NA,NA,NA,gelb,blue,b,0,NA,NA,NA,7,2,86,b,1,0.3779922320100013,sub-93089749
NA,NA,NA,NA,NA,NA,NA,blau,yellow,g,0,NA,NA,NA,7,3,87,g,1,0.6105489210021915,sub-93089749
NA,NA,NA,NA,NA,NA,NA,gelb,red,r,0,NA,NA,NA,7,4,88,r,1,0.5692394039942883,sub-93089749
NA,NA,NA,NA,NA,NA,NA,blau,blue,b,1,NA,NA,NA,7,5,89,b,1,0.7102370990032796,sub-93089749
NA,NA,NA,NA,NA,NA,NA,rot,red,r,1,NA,NA,NA,7,6,90,r,1,0.7092537650023587,sub-93089749
NA,NA,NA,NA,NA,NA,NA,rot,red,r,1,NA,NA,NA,7,7,91,r,1,0.5021774620108772,sub-93089749
NA,NA,NA,NA,NA,NA,NA,blau,red,r,0,NA,NA,NA,7,8,92,r,1,0.4005324199970346,sub-93089749
NA,NA,NA,NA,NA,NA,NA,gelb,yellow,g,1,NA,NA,NA,7,9,93,g,1,0.49989892001030967,sub-93089749
NA,NA,NA,NA,NA,NA,NA,gelb,yellow,g,1,NA,NA,NA,7,10,94,g,1,0.7834425910114078,sub-93089749
NA,NA,NA,NA,NA,NA,NA,rot,yellow,g,0,NA,NA,NA,7,11,95,g,1,0.7441396520007402,sub-93089749
NA,NA,NA,NA,NA,NA,NA,rot,yellow,g,0,NA,NA,NA,8,0,96,g,1,0.558468458999414,sub-93089749
NA,NA,NA,NA,NA,NA,NA,gelb,red,r,0,NA,NA,NA,8,1,97,r,1,0.45328748000611085,sub-93089749
NA,NA,NA,NA,NA,NA,NA,blau,yellow,g,0,NA,NA,NA,8,2,98,g,1,0.5659210699959658,sub-93089749
NA,NA,NA,NA,NA,NA,NA,gelb,blue,b,0,NA,NA,NA,8,3,99,b,1,0.3975352380075492,sub-93089749
NA,NA,NA,NA,NA,NA,NA,rot,blue,b,0,NA,NA,NA,8,4,100,b,1,0.5778514439880382,sub-93089749
NA,NA,NA,NA,NA,NA,NA,gelb,yellow,g,1,NA,NA,NA,8,5,101,g,1,0.34704967399011366,sub-93089749
NA,NA,NA,NA,NA,NA,NA,gelb,yellow,g,1,NA,NA,NA,8,6,102,g,1,0.39322217399603687,sub-93089749
NA,NA,NA,NA,NA,NA,NA,blau,red,r,0,NA,NA,NA,8,7,103,r,1,0.6044768619904062,sub-93089749
NA,NA,NA,NA,NA,NA,NA,blau,blue,b,1,NA,NA,NA,8,8,104,b,1,0.4449560390057741,sub-93089749
NA,NA,NA,NA,NA,NA,NA,blau,blue,b,1,NA,NA,NA,8,9,105,b,1,0.47102585999527946,sub-93089749
NA,NA,NA,NA,NA,NA,NA,rot,red,r,1,NA,NA,NA,8,10,106,r,1,0.4919514490029542,sub-93089749
NA,NA,NA,NA,NA,NA,NA,rot,red,r,1,NA,NA,NA,8,11,107,r,1,0.5048434989876114,sub-93089749
NA,NA,NA,NA,NA,NA,NA,rot,yellow,g,0,NA,NA,NA,9,0,108,g,1,0.3845453469984932,sub-93089749
NA,NA,NA,NA,NA,NA,NA,rot,red,r,1,NA,NA,NA,9,1,109,r,1,0.49157470698992256,sub-93089749
NA,NA,NA,NA,NA,NA,NA,blau,blue,b,1,NA,NA,NA,9,2,110,b,1,0.5508606719959062,sub-93089749
NA,NA,NA,NA,NA,NA,NA,gelb,yellow,g,1,NA,NA,NA,9,3,111,g,1,0.4177527290012222,sub-93089749
NA,NA,NA,NA,NA,NA,NA,blau,yellow,g,0,NA,NA,NA,9,4,112,g,1,0.6965954079932999,sub-93089749
NA,NA,NA,NA,NA,NA,NA,gelb,red,r,0,NA,NA,NA,9,5,113,r,1,0.6357266889972379,sub-93089749
NA,NA,NA,NA,NA,NA,NA,blau,blue,b,1,NA,NA,NA,9,6,114,b,1,0.9191617829928872,sub-93089749
NA,NA,NA,NA,NA,NA,NA,gelb,yellow,g,1,NA,NA,NA,9,7,115,g,1,0.7962484660092741,sub-93089749
NA,NA,NA,NA,NA,NA,NA,rot,red,r,1,NA,NA,NA,9,8,116,r,1,0.4917461209988687,sub-93089749
NA,NA,NA,NA,NA,NA,NA,gelb,blue,b,0,NA,NA,NA,9,9,117,b,1,0.4884329550113762,sub-93089749
NA,NA,NA,NA,NA,NA,NA,blau,red,r,0,NA,NA,NA,9,10,118,r,1,0.615796705998946,sub-93089749
NA,NA,NA,NA,NA,NA,NA,rot,blue,b,0,NA,NA,NA,9,11,119,b,1,0.6687335110036656,sub-93089749
NA,NA,NA,NA,NA,NA,NA,NA,NA,NA,NA,NA,NA,NA,NA,NA,NA,NA,NA,NA,sub-93089749
