wordCTK,colorCTK,corrAnsCTK,congruentCTK,wordPractice,colorPractice,congruentPractice,word,color,corrAns,congruent,trials_practice.thisRepN,trials_practice.thisTrialN,trials_practice.thisN,trials_test.thisRepN,trials_test.thisTrialN,trials_test.thisN,keyResp_test_run.keys,keyResp_test_run.corr,keyResp_test_run.rt,participant
NA,NA,NA,NA,NA,NA,NA,NA,NA,NA,NA,NA,NA,NA,NA,NA,NA,NA,NA,NA,sub-93289308
NA,NA,NA,NA,NA,NA,NA,NA,NA,NA,NA,NA,NA,NA,NA,NA,NA,NA,NA,NA,sub-93289308
test,blue,b,1,NA,NA,NA,NA,NA,NA,NA,NA,NA,NA,NA,NA,NA,NA,NA,NA,sub-93289308
test,yellow,g,1,NA,NA,NA,NA,NA,NA,NA,NA,NA,NA,NA,NA,NA,NA,NA,NA,sub-93289308
test,red,r,1,NA,NA,NA,NA,NA,NA,NA,NA,NA,NA,NA,NA,NA,NA,NA,NA,sub-93289308
test,red,r,1,NA,NA,NA,NA,NA,NA,NA,NA,NA,NA,NA,NA,NA,NA,NA,NA,sub-93289308
test,yellow,g,1,NA,NA,NA,NA,NA,NA,NA,NA,NA,NA,NA,NA,NA,NA,NA,NA,sub-93289308
test,blue,b,1,NA,NA,NA,NA,NA,NA,NA,NA,NA,NA,NA,NA,NA,NA,NA,NA,sub-93289308
test,yellow,g,1,NA,NA,NA,NA,NA,NA,NA,NA,NA,NA,NA,NA,NA,NA,NA,NA,sub-93289308
test,red,r,1,NA,NA,NA,NA,NA,NA,NA,NA,NA,NA,NA,NA,NA,NA,NA,NA,sub-93289308
test,blue,b,1,NA,NA,NA,NA,NA,NA,NA,NA,NA,NA,NA,NA,NA,NA,NA,NA,sub-93289308
test,blue,b,1,NA,NA,NA,NA,NA,NA,NA,NA,NA,NA,NA,NA,NA,NA,NA,NA,sub-93289308
test,red,r,1,NA,NA,NA,NA,NA,NA,NA,NA,NA,NA,NA,NA,NA,NA,NA,NA,sub-93289308
test,yellow,g,1,NA,NA,NA,NA,NA,NA,NA,NA,NA,NA,NA,NA,NA,NA,NA,NA,sub-93289308
NA,NA,NA,NA,NA,NA,NA,NA,NA,NA,NA,NA,NA,NA,NA,NA,NA,NA,NA,NA,sub-93289308
NA,NA,NA,NA,blau,yellow,0,NA,NA,NA,NA,0,0,0,NA,NA,NA,NA,NA,NA,sub-93289308
NA,NA,NA,NA,gelb,blue,0,NA,NA,NA,NA,0,1,1,NA,NA,NA,NA,NA,NA,sub-93289308
NA,NA,NA,NA,blau,blue,1,NA,NA,NA,NA,0,2,2,NA,NA,NA,NA,NA,NA,sub-93289308
NA,NA,NA,NA,rot,red,1,NA,NA,NA,NA,0,3,3,NA,NA,NA,NA,NA,NA,sub-93289308
NA,NA,NA,NA,gelb,red,0,NA,NA,NA,NA,0,4,4,NA,NA,NA,NA,NA,NA,sub-93289308
NA,NA,NA,NA,rot,yellow,0,NA,NA,NA,NA,0,5,5,NA,NA,NA,NA,NA,NA,sub-93289308
NA,NA,NA,NA,rot,blue,0,NA,NA,NA,NA,0,6,6,NA,NA,NA,NA,NA,NA,sub-93289308
NA,NA,NA,NA,rot,red,1,NA,NA,NA,NA,0,7,7,NA,NA,NA,NA,NA,NA,sub-93289308
NA,NA,NA,NA,gelb,yellow,1,NA,NA,NA,NA,0,8,8,NA,NA,NA,NA,NA,NA,sub-93289308
NA,NA,NA,NA,blau,blue,1,NA,NA,NA,NA,0,9,9,NA,NA,NA,NA,NA,NA,sub-93289308
NA,NA,NA,NA,blau,red,0,NA,NA,NA,NA,0,10,10,NA,NA,NA,NA,NA,NA,sub-93289308
NA,NA,NA,NA,gelb,yellow,1,NA,NA,NA,NA,0,11,11,NA,NA,NA,NA,NA,NA,sub-93289308
NA,NA,NA,NA,blau,blue,1,NA,NA,NA,NA,1,0,12,NA,NA,NA,NA,NA,NA,sub-93289308
NA,NA,NA,NA,blau,yellow,0,NA,NA,NA,NA,1,1,13,NA,NA,NA,NA,NA,NA,sub-93289308
NA,NA,NA,NA,blau,red,0,NA,NA,NA,NA,1,2,14,NA,NA,NA,NA,NA,NA,sub-93289308
NA,NA,NA,NA,rot,yellow,0,NA,NA,NA,NA,1,3,15,NA,NA,NA,NA,NA,NA,sub-93289308
NA,NA,NA,NA,gelb,yellow,1,NA,NA,NA,NA,1,4,16,NA,NA,NA,NA,NA,NA,sub-93289308
NA,NA,NA,NA,rot,blue,0,NA,NA,NA,NA,1,5,17,NA,NA,NA,NA,NA,NA,sub-93289308
NA,NA,NA,NA,gelb,yellow,1,NA,NA,NA,NA,1,6,18,NA,NA,NA,NA,NA,NA,sub-93289308
NA,NA,NA,NA,gelb,blue,0,NA,NA,NA,NA,1,7,19,NA,NA,NA,NA,NA,NA,sub-93289308
NA,NA,NA,NA,rot,red,1,NA,NA,NA,NA,1,8,20,NA,NA,NA,NA,NA,NA,sub-93289308
NA,NA,NA,NA,rot,red,1,NA,NA,NA,NA,1,9,21,NA,NA,NA,NA,NA,NA,sub-93289308
NA,NA,NA,NA,gelb,red,0,NA,NA,NA,NA,1,10,22,NA,NA,NA,NA,NA,NA,sub-93289308
NA,NA,NA,NA,blau,blue,1,NA,NA,NA,NA,1,11,23,NA,NA,NA,NA,NA,NA,sub-93289308
NA,NA,NA,NA,NA,NA,NA,NA,NA,NA,NA,NA,NA,NA,NA,NA,NA,NA,NA,NA,sub-93289308
NA,NA,NA,NA,NA,NA,NA,blau,blue,b,1,NA,NA,NA,0,0,0,b,1,0.4806932,sub-93289308
NA,NA,NA,NA,NA,NA,NA,gelb,blue,b,0,NA,NA,NA,0,1,1,b,1,0.5003923,sub-93289308
NA,NA,NA,NA,NA,NA,NA,gelb,yellow,g,1,NA,NA,NA,0,2,2,g,1,0.5138499,sub-93289308
NA,NA,NA,NA,NA,NA,NA,blau,yellow,g,0,NA,NA,NA,0,3,3,g,1,0.5276923,sub-93289308
NA,NA,NA,NA,NA,NA,NA,blau,blue,b,1,NA,NA,NA,0,4,4,b,1,0.4129015,sub-93289308
NA,NA,NA,NA,NA,NA,NA,gelb,yellow,g,1,NA,NA,NA,0,5,5,g,1,0.435059,sub-93289308
NA,NA,NA,NA,NA,NA,NA,rot,blue,b,0,NA,NA,NA,0,6,6,b,1,0.4840262,sub-93289308
NA,NA,NA,NA,NA,NA,NA,rot,yellow,g,0,NA,NA,NA,0,7,7,g,1,0.4004701,sub-93289308
NA,NA,NA,NA,NA,NA,NA,rot,red,r,1,NA,NA,NA,0,8,8,r,1,0.5022987,sub-93289308
NA,NA,NA,NA,NA,NA,NA,blau,red,r,0,NA,NA,NA,0,9,9,r,1,0.4427446,sub-93289308
NA,NA,NA,NA,NA,NA,NA,rot,red,r,1,NA,NA,NA,0,10,10,r,1,0.4069964,sub-93289308
NA,NA,NA,NA,NA,NA,NA,gelb,red,r,0,NA,NA,NA,0,11,11,r,1,0.4320786,sub-93289308
NA,NA,NA,NA,NA,NA,NA,gelb,yellow,g,1,NA,NA,NA,1,0,12,g,1,0.4255804,sub-93289308
NA,NA,NA,NA,NA,NA,NA,rot,red,r,1,NA,NA,NA,1,1,13,r,1,0.3866717,sub-93289308
NA,NA,NA,NA,NA,NA,NA,blau,blue,b,1,NA,NA,NA,1,2,14,b,1,0.4765832,sub-93289308
NA,NA,NA,NA,NA,NA,NA,gelb,yellow,g,1,NA,NA,NA,1,3,15,g,1,0.5076907,sub-93289308
NA,NA,NA,NA,NA,NA,NA,rot,red,r,1,NA,NA,NA,1,4,16,r,1,0.3719142,sub-93289308
NA,NA,NA,NA,NA,NA,NA,blau,red,r,0,NA,NA,NA,1,5,17,r,1,0.5099903,sub-93289308
NA,NA,NA,NA,NA,NA,NA,blau,blue,b,1,NA,NA,NA,1,6,18,b,1,0.6122715,sub-93289308
NA,NA,NA,NA,NA,NA,NA,blau,yellow,g,0,NA,NA,NA,1,7,19,g,1,0.5549738,sub-93289308
NA,NA,NA,NA,NA,NA,NA,rot,yellow,g,0,NA,NA,NA,1,8,20,g,1,0.3879138,sub-93289308
NA,NA,NA,NA,NA,NA,NA,gelb,blue,b,0,NA,NA,NA,1,9,21,b,1,0.4902769,sub-93289308
NA,NA,NA,NA,NA,NA,NA,gelb,red,r,0,NA,NA,NA,1,10,22,r,1,0.4754451,sub-93289308
NA,NA,NA,NA,NA,NA,NA,rot,blue,b,0,NA,NA,NA,1,11,23,b,1,0.4342149,sub-93289308
NA,NA,NA,NA,NA,NA,NA,gelb,yellow,g,1,NA,NA,NA,2,0,24,g,1,0.4818527,sub-93289308
NA,NA,NA,NA,NA,NA,NA,blau,blue,b,1,NA,NA,NA,2,1,25,b,1,0.4622684,sub-93289308
NA,NA,NA,NA,NA,NA,NA,rot,blue,b,0,NA,NA,NA,2,2,26,b,1,0.5851788,sub-93289308
NA,NA,NA,NA,NA,NA,NA,gelb,yellow,g,1,NA,NA,NA,2,3,27,g,1,0.4882208,sub-93289308
NA,NA,NA,NA,NA,NA,NA,gelb,red,r,0,NA,NA,NA,2,4,28,r,1,0.3169737,sub-93289308
NA,NA,NA,NA,NA,NA,NA,blau,red,r,0,NA,NA,NA,2,5,29,r,1,0.3367603,sub-93289308
NA,NA,NA,NA,NA,NA,NA,blau,blue,b,1,NA,NA,NA,2,6,30,b,1,0.3802753,sub-93289308
NA,NA,NA,NA,NA,NA,NA,rot,red,r,1,NA,NA,NA,2,7,31,r,1,0.4755952,sub-93289308
NA,NA,NA,NA,NA,NA,NA,rot,red,r,1,NA,NA,NA,2,8,32,r,1,0.4858707,sub-93289308
NA,NA,NA,NA,NA,NA,NA,blau,yellow,g,0,NA,NA,NA,2,9,33,g,1,0.318329,sub-93289308
NA,NA,NA,NA,NA,NA,NA,gelb,blue,b,0,NA,NA,NA,2,10,34,b,1,0.413573,sub-93289308
NA,NA,NA,NA,NA,NA,NA,rot,yellow,g,0,NA,NA,NA,2,11,35,g,1,0.5338464,sub-93289308
NA,NA,NA,NA,NA,NA,NA,blau,blue,b,1,NA,NA,NA,3,0,36,b,1,0.4105911,sub-93289308
NA,NA,NA,NA,NA,NA,NA,rot,blue,b,0,NA,NA,NA,3,1,37,b,1,0.4561798,sub-93289308
NA,NA,NA,NA,NA,NA,NA,blau,blue,b,1,NA,NA,NA,3,2,38,b,1,0.4460025,sub-93289308
NA,NA,NA,NA,NA,NA,NA,blau,red,r,0,NA,NA,NA,3,3,39,r,1,0.4902754,sub-93289308
NA,NA,NA,NA,NA,NA,NA,rot,red,r,1,NA,NA,NA,3,4,40,r,1,0.4193879,sub-93289308
NA,NA,NA,NA,NA,NA,NA,gelb,red,r,0,NA,NA,NA,3,5,41,r,1,0.5653752,sub-93289308
NA,NA,NA,NA,NA,NA,NA,rot,red,r,1,NA,NA,NA,3,6,42,r,1,0.3675744,sub-93289308
NA,NA,NA,NA,NA,NA,NA,gelb,blue,b,0,NA,NA,NA,3,7,43,b,1,0.4562777,sub-93289308
NA,NA,NA,NA,NA,NA,NA,blau,yellow,g,0,NA,NA,NA,3,8,44,g,1,0.4055693,sub-93289308
NA,NA,NA,NA,NA,NA,NA,rot,yellow,g,0,NA,NA,NA,3,9,45,g,1,0.3256318,sub-93289308
NA,NA,NA,NA,NA,NA,NA,gelb,yellow,g,1,NA,NA,NA,3,10,46,g,1,0.3305387,sub-93289308
NA,NA,NA,NA,NA,NA,NA,gelb,yellow,g,1,NA,NA,NA,3,11,47,g,1,0.3429175,sub-93289308
NA,NA,NA,NA,NA,NA,NA,gelb,yellow,g,1,NA,NA,NA,4,0,48,g,1,0.2928342,sub-93289308
NA,NA,NA,NA,NA,NA,NA,gelb,blue,b,0,NA,NA,NA,4,1,49,b,1,0.5564092,sub-93289308
NA,NA,NA,NA,NA,NA,NA,rot,red,r,1,NA,NA,NA,4,2,50,r,1,0.3726283,sub-93289308
NA,NA,NA,NA,NA,NA,NA,blau,blue,b,1,NA,NA,NA,4,3,51,b,1,0.3826842,sub-93289308
NA,NA,NA,NA,NA,NA,NA,gelb,red,r,0,NA,NA,NA,4,4,52,r,1,0.524943,sub-93289308
NA,NA,NA,NA,NA,NA,NA,blau,blue,b,1,NA,NA,NA,4,5,53,b,1,0.3989593,sub-93289308
NA,NA,NA,NA,NA,NA,NA,gelb,yellow,g,1,NA,NA,NA,4,6,54,g,1,0.3358539,sub-93289308
NA,NA,NA,NA,NA,NA,NA,rot,yellow,g,0,NA,NA,NA,4,7,55,g,1,0.5565781,sub-93289308
NA,NA,NA,NA,NA,NA,NA,rot,red,r,1,NA,NA,NA,4,8,56,r,1,0.3950924,sub-93289308
NA,NA,NA,NA,NA,NA,NA,blau,yellow,g,0,NA,NA,NA,4,9,57,g,1,0.5572347,sub-93289308
NA,NA,NA,NA,NA,NA,NA,blau,red,r,0,NA,NA,NA,4,10,58,r,1,0.5765293,sub-93289308
NA,NA,NA,NA,NA,NA,NA,rot,blue,b,0,NA,NA,NA,4,11,59,b,1,0.5681009,sub-93289308
NA,NA,NA,NA,NA,NA,NA,blau,blue,b,1,NA,NA,NA,5,0,60,b,1,0.4933578,sub-93289308
NA,NA,NA,NA,NA,NA,NA,rot,red,r,1,NA,NA,NA,5,1,61,r,1,0.4483831,sub-93289308
NA,NA,NA,NA,NA,NA,NA,rot,blue,b,0,NA,NA,NA,5,2,62,b,1,0.5474818,sub-93289308
NA,NA,NA,NA,NA,NA,NA,rot,red,r,1,NA,NA,NA,5,3,63,r,1,0.4956732,sub-93289308
NA,NA,NA,NA,NA,NA,NA,blau,yellow,g,0,NA,NA,NA,5,4,64,g,1,0.3453379,sub-93289308
NA,NA,NA,NA,NA,NA,NA,gelb,yellow,g,1,NA,NA,NA,5,5,65,g,1,0.3783351,sub-93289308
NA,NA,NA,NA,NA,NA,NA,blau,red,r,0,NA,NA,NA,5,6,66,r,1,0.5732773,sub-93289308
NA,NA,NA,NA,NA,NA,NA,gelb,red,r,0,NA,NA,NA,5,7,67,r,1,0.4597657,sub-93289308
NA,NA,NA,NA,NA,NA,NA,gelb,yellow,g,1,NA,NA,NA,5,8,68,g,1,0.4775518,sub-93289308
NA,NA,NA,NA,NA,NA,NA,blau,blue,b,1,NA,NA,NA,5,9,69,b,1,0.4618567,sub-93289308
NA,NA,NA,NA,NA,NA,NA,gelb,blue,b,0,NA,NA,NA,5,10,70,b,1,0.3566694,sub-93289308
NA,NA,NA,NA,NA,NA,NA,rot,yellow,g,0,NA,NA,NA,5,11,71,g,1,1.0468102,sub-93289308
NA,NA,NA,NA,NA,NA,NA,blau,red,r,0,NA,NA,NA,6,0,72,r,1,0.3852674,sub-93289308
NA,NA,NA,NA,NA,NA,NA,rot,red,r,1,NA,NA,NA,6,1,73,r,1,0.3207404,sub-93289308
NA,NA,NA,NA,NA,NA,NA,blau,blue,b,1,NA,NA,NA,6,2,74,b,1,0.3221328,sub-93289308
NA,NA,NA,NA,NA,NA,NA,rot,red,r,1,NA,NA,NA,6,3,75,r,1,0.685188,sub-93289308
NA,NA,NA,NA,NA,NA,NA,gelb,blue,b,0,NA,NA,NA,6,4,76,b,1,0.5799545,sub-93289308
NA,NA,NA,NA,NA,NA,NA,blau,yellow,g,0,NA,NA,NA,6,5,77,r,0,0.4881023,sub-93289308
NA,NA,NA,NA,NA,NA,NA,blau,blue,b,1,NA,NA,NA,6,6,78,b,1,0.6121889,sub-93289308
NA,NA,NA,NA,NA,NA,NA,rot,blue,b,0,NA,NA,NA,6,7,79,b,1,0.7556528,sub-93289308
NA,NA,NA,NA,NA,NA,NA,gelb,yellow,g,1,NA,NA,NA,6,8,80,g,1,0.6202483,sub-93289308
NA,NA,NA,NA,NA,NA,NA,gelb,yellow,g,1,NA,NA,NA,6,9,81,g,1,0.5137337,sub-93289308
NA,NA,NA,NA,NA,NA,NA,rot,yellow,g,0,NA,NA,NA,6,10,82,g,1,0.3445877,sub-93289308
NA,NA,NA,NA,NA,NA,NA,gelb,red,r,0,NA,NA,NA,6,11,83,r,1,0.538249,sub-93289308
NA,NA,NA,NA,NA,NA,NA,gelb,red,r,0,NA,NA,NA,7,0,84,r,1,0.3738966,sub-93289308
NA,NA,NA,NA,NA,NA,NA,gelb,yellow,g,1,NA,NA,NA,7,1,85,g,1,0.4406945,sub-93289308
NA,NA,NA,NA,NA,NA,NA,blau,blue,b,1,NA,NA,NA,7,2,86,b,1,0.4541535,sub-93289308
NA,NA,NA,NA,NA,NA,NA,rot,red,r,1,NA,NA,NA,7,3,87,r,1,0.7907713,sub-93289308
NA,NA,NA,NA,NA,NA,NA,blau,red,r,0,NA,NA,NA,7,4,88,r,1,0.3553801,sub-93289308
NA,NA,NA,NA,NA,NA,NA,gelb,blue,b,0,NA,NA,NA,7,5,89,b,1,0.5155011,sub-93289308
NA,NA,NA,NA,NA,NA,NA,rot,blue,b,0,NA,NA,NA,7,6,90,b,1,0.3436745,sub-93289308
NA,NA,NA,NA,NA,NA,NA,rot,red,r,1,NA,NA,NA,7,7,91,r,1,0.5056329,sub-93289308
NA,NA,NA,NA,NA,NA,NA,blau,yellow,g,0,NA,NA,NA,7,8,92,g,1,0.4869464,sub-93289308
NA,NA,NA,NA,NA,NA,NA,rot,yellow,g,0,NA,NA,NA,7,9,93,g,1,0.3680769,sub-93289308
NA,NA,NA,NA,NA,NA,NA,blau,blue,b,1,NA,NA,NA,7,10,94,b,1,0.5425619,sub-93289308
NA,NA,NA,NA,NA,NA,NA,gelb,yellow,g,1,NA,NA,NA,7,11,95,g,1,0.4864319,sub-93289308
NA,NA,NA,NA,NA,NA,NA,blau,yellow,g,0,NA,NA,NA,8,0,96,g,1,0.4726998,sub-93289308
NA,NA,NA,NA,NA,NA,NA,gelb,yellow,g,1,NA,NA,NA,8,1,97,g,1,0.4406628,sub-93289308
NA,NA,NA,NA,NA,NA,NA,blau,blue,b,1,NA,NA,NA,8,2,98,b,1,0.5458475,sub-93289308
NA,NA,NA,NA,NA,NA,NA,gelb,yellow,g,1,NA,NA,NA,8,3,99,g,1,0.4009538,sub-93289308
NA,NA,NA,NA,NA,NA,NA,blau,red,r,0,NA,NA,NA,8,4,100,r,1,0.4872712,sub-93289308
NA,NA,NA,NA,NA,NA,NA,rot,red,r,1,NA,NA,NA,8,5,101,r,1,0.398626,sub-93289308
NA,NA,NA,NA,NA,NA,NA,rot,red,r,1,NA,NA,NA,8,6,102,r,1,0.4471388,sub-93289308
NA,NA,NA,NA,NA,NA,NA,gelb,red,r,0,NA,NA,NA,8,7,103,r,1,0.3784999,sub-93289308
NA,NA,NA,NA,NA,NA,NA,gelb,blue,b,0,NA,NA,NA,8,8,104,b,1,0.6239653,sub-93289308
NA,NA,NA,NA,NA,NA,NA,rot,blue,b,0,NA,NA,NA,8,9,105,b,1,0.3262512,sub-93289308
NA,NA,NA,NA,NA,NA,NA,blau,blue,b,1,NA,NA,NA,8,10,106,b,1,0.3769995,sub-93289308
NA,NA,NA,NA,NA,NA,NA,rot,yellow,g,0,NA,NA,NA,8,11,107,g,1,0.304755,sub-93289308
NA,NA,NA,NA,NA,NA,NA,rot,yellow,g,0,NA,NA,NA,9,0,108,g,1,0.3721998,sub-93289308
NA,NA,NA,NA,NA,NA,NA,rot,red,r,1,NA,NA,NA,9,1,109,r,1,0.3958068,sub-93289308
NA,NA,NA,NA,NA,NA,NA,blau,red,r,0,NA,NA,NA,9,2,110,r,1,0.4920657,sub-93289308
NA,NA,NA,NA,NA,NA,NA,blau,yellow,g,0,NA,NA,NA,9,3,111,b,0,0.5543082,sub-93289308
NA,NA,NA,NA,NA,NA,NA,blau,blue,b,1,NA,NA,NA,9,4,112,b,1,0.4292276,sub-93289308
NA,NA,NA,NA,NA,NA,NA,gelb,yellow,g,1,NA,NA,NA,9,5,113,g,1,0.6258219,sub-93289308
NA,NA,NA,NA,NA,NA,NA,rot,blue,b,0,NA,NA,NA,9,6,114,b,1,0.6599127,sub-93289308
NA,NA,NA,NA,NA,NA,NA,rot,red,r,1,NA,NA,NA,9,7,115,r,1,0.5574136,sub-93289308
NA,NA,NA,NA,NA,NA,NA,gelb,blue,b,0,NA,NA,NA,9,8,116,b,1,0.454799,sub-93289308
NA,NA,NA,NA,NA,NA,NA,gelb,red,r,0,NA,NA,NA,9,9,117,r,1,0.6730768,sub-93289308
NA,NA,NA,NA,NA,NA,NA,blau,blue,b,1,NA,NA,NA,9,10,118,b,1,0.5671356,sub-93289308
NA,NA,NA,NA,NA,NA,NA,gelb,yellow,g,1,NA,NA,NA,9,11,119,g,1,0.4198105,sub-93289308
NA,NA,NA,NA,NA,NA,NA,NA,NA,NA,NA,NA,NA,NA,NA,NA,NA,NA,NA,NA,sub-93289308
