wordCTK,colorCTK,corrAnsCTK,congruentCTK,wordPractice,colorPractice,congruentPractice,word,color,corrAns,congruent,trials_practice.thisRepN,trials_practice.thisTrialN,trials_practice.thisN,trials_test.thisRepN,trials_test.thisTrialN,trials_test.thisN,keyResp_test_run.keys,keyResp_test_run.corr,keyResp_test_run.rt,participant
NA,NA,NA,NA,NA,NA,NA,NA,NA,NA,NA,NA,NA,NA,NA,NA,NA,NA,NA,NA,sub-8924914
NA,NA,NA,NA,NA,NA,NA,NA,NA,NA,NA,NA,NA,NA,NA,NA,NA,NA,NA,NA,sub-8924914
test,blue,b,1,NA,NA,NA,NA,NA,NA,NA,NA,NA,NA,NA,NA,NA,NA,NA,NA,sub-8924914
test,red,r,1,NA,NA,NA,NA,NA,NA,NA,NA,NA,NA,NA,NA,NA,NA,NA,NA,sub-8924914
test,yellow,g,1,NA,NA,NA,NA,NA,NA,NA,NA,NA,NA,NA,NA,NA,NA,NA,NA,sub-8924914
test,yellow,g,1,NA,NA,NA,NA,NA,NA,NA,NA,NA,NA,NA,NA,NA,NA,NA,NA,sub-8924914
test,blue,b,1,NA,NA,NA,NA,NA,NA,NA,NA,NA,NA,NA,NA,NA,NA,NA,NA,sub-8924914
test,red,r,1,NA,NA,NA,NA,NA,NA,NA,NA,NA,NA,NA,NA,NA,NA,NA,NA,sub-8924914
test,yellow,g,1,NA,NA,NA,NA,NA,NA,NA,NA,NA,NA,NA,NA,NA,NA,NA,NA,sub-8924914
test,blue,b,1,NA,NA,NA,NA,NA,NA,NA,NA,NA,NA,NA,NA,NA,NA,NA,NA,sub-8924914
test,red,r,1,NA,NA,NA,NA,NA,NA,NA,NA,NA,NA,NA,NA,NA,NA,NA,NA,sub-8924914
test,red,r,1,NA,NA,NA,NA,NA,NA,NA,NA,NA,NA,NA,NA,NA,NA,NA,NA,sub-8924914
test,yellow,g,1,NA,NA,NA,NA,NA,NA,NA,NA,NA,NA,NA,NA,NA,NA,NA,NA,sub-8924914
test,blue,b,1,NA,NA,NA,NA,NA,NA,NA,NA,NA,NA,NA,NA,NA,NA,NA,NA,sub-8924914
NA,NA,NA,NA,NA,NA,NA,NA,NA,NA,NA,NA,NA,NA,NA,NA,NA,NA,NA,NA,sub-8924914
NA,NA,NA,NA,gelb,yellow,1,NA,NA,NA,NA,0,0,0,NA,NA,NA,NA,NA,NA,sub-8924914
NA,NA,NA,NA,rot,yellow,0,NA,NA,NA,NA,0,1,1,NA,NA,NA,NA,NA,NA,sub-8924914
NA,NA,NA,NA,blau,yellow,0,NA,NA,NA,NA,0,2,2,NA,NA,NA,NA,NA,NA,sub-8924914
NA,NA,NA,NA,blau,blue,1,NA,NA,NA,NA,0,3,3,NA,NA,NA,NA,NA,NA,sub-8924914
NA,NA,NA,NA,gelb,red,0,NA,NA,NA,NA,0,4,4,NA,NA,NA,NA,NA,NA,sub-8924914
NA,NA,NA,NA,rot,red,1,NA,NA,NA,NA,0,5,5,NA,NA,NA,NA,NA,NA,sub-8924914
NA,NA,NA,NA,blau,red,0,NA,NA,NA,NA,0,6,6,NA,NA,NA,NA,NA,NA,sub-8924914
NA,NA,NA,NA,rot,red,1,NA,NA,NA,NA,0,7,7,NA,NA,NA,NA,NA,NA,sub-8924914
NA,NA,NA,NA,gelb,yellow,1,NA,NA,NA,NA,0,8,8,NA,NA,NA,NA,NA,NA,sub-8924914
NA,NA,NA,NA,blau,blue,1,NA,NA,NA,NA,0,9,9,NA,NA,NA,NA,NA,NA,sub-8924914
NA,NA,NA,NA,gelb,blue,0,NA,NA,NA,NA,0,10,10,NA,NA,NA,NA,NA,NA,sub-8924914
NA,NA,NA,NA,rot,blue,0,NA,NA,NA,NA,0,11,11,NA,NA,NA,NA,NA,NA,sub-8924914
NA,NA,NA,NA,gelb,red,0,NA,NA,NA,NA,1,0,12,NA,NA,NA,NA,NA,NA,sub-8924914
NA,NA,NA,NA,blau,blue,1,NA,NA,NA,NA,1,1,13,NA,NA,NA,NA,NA,NA,sub-8924914
NA,NA,NA,NA,rot,yellow,0,NA,NA,NA,NA,1,2,14,NA,NA,NA,NA,NA,NA,sub-8924914
NA,NA,NA,NA,blau,blue,1,NA,NA,NA,NA,1,3,15,NA,NA,NA,NA,NA,NA,sub-8924914
NA,NA,NA,NA,rot,red,1,NA,NA,NA,NA,1,4,16,NA,NA,NA,NA,NA,NA,sub-8924914
NA,NA,NA,NA,rot,red,1,NA,NA,NA,NA,1,5,17,NA,NA,NA,NA,NA,NA,sub-8924914
NA,NA,NA,NA,gelb,blue,0,NA,NA,NA,NA,1,6,18,NA,NA,NA,NA,NA,NA,sub-8924914
NA,NA,NA,NA,blau,red,0,NA,NA,NA,NA,1,7,19,NA,NA,NA,NA,NA,NA,sub-8924914
NA,NA,NA,NA,rot,blue,0,NA,NA,NA,NA,1,8,20,NA,NA,NA,NA,NA,NA,sub-8924914
NA,NA,NA,NA,gelb,yellow,1,NA,NA,NA,NA,1,9,21,NA,NA,NA,NA,NA,NA,sub-8924914
NA,NA,NA,NA,gelb,yellow,1,NA,NA,NA,NA,1,10,22,NA,NA,NA,NA,NA,NA,sub-8924914
NA,NA,NA,NA,blau,yellow,0,NA,NA,NA,NA,1,11,23,NA,NA,NA,NA,NA,NA,sub-8924914
NA,NA,NA,NA,NA,NA,NA,NA,NA,NA,NA,NA,NA,NA,NA,NA,NA,NA,NA,NA,sub-8924914
NA,NA,NA,NA,NA,NA,NA,gelb,blue,b,0,NA,NA,NA,0,0,0,b,1,0.8679726510017645,sub-8924914
NA,NA,NA,NA,NA,NA,NA,rot,yellow,g,0,NA,NA,NA,0,1,1,g,1,0.7913473770022392,sub-8924914
NA,NA,NA,NA,NA,NA,NA,blau,red,r,0,NA,NA,NA,0,2,2,r,1,3.6942514609982022,sub-8924914
NA,NA,NA,NA,NA,NA,NA,gelb,yellow,g,1,NA,NA,NA,0,3,3,g,1,1.058545719992253,sub-8924914
NA,NA,NA,NA,NA,NA,NA,gelb,yellow,g,1,NA,NA,NA,0,4,4,g,1,0.6333712109917542,sub-8924914
NA,NA,NA,NA,NA,NA,NA,gelb,red,r,0,NA,NA,NA,0,5,5,r,1,0.842765329987742,sub-8924914
NA,NA,NA,NA,NA,NA,NA,blau,blue,b,1,NA,NA,NA,0,6,6,b,1,0.4396654349984601,sub-8924914
NA,NA,NA,NA,NA,NA,NA,blau,blue,b,1,NA,NA,NA,0,7,7,b,1,0.8215249380009482,sub-8924914
NA,NA,NA,NA,NA,NA,NA,rot,red,r,1,NA,NA,NA,0,8,8,r,1,0.7496934520022478,sub-8924914
NA,NA,NA,NA,NA,NA,NA,rot,blue,b,0,NA,NA,NA,0,9,9,b,1,1.621633981994819,sub-8924914
NA,NA,NA,NA,NA,NA,NA,rot,red,r,1,NA,NA,NA,0,10,10,r,1,0.7695516670064535,sub-8924914
NA,NA,NA,NA,NA,NA,NA,blau,yellow,g,0,NA,NA,NA,0,11,11,g,1,0.6264942309935577,sub-8924914
NA,NA,NA,NA,NA,NA,NA,blau,blue,b,1,NA,NA,NA,1,0,12,b,1,0.7298756669915747,sub-8924914
NA,NA,NA,NA,NA,NA,NA,gelb,yellow,g,1,NA,NA,NA,1,1,13,r,0,1.1221360300114611,sub-8924914
NA,NA,NA,NA,NA,NA,NA,rot,yellow,g,0,NA,NA,NA,1,2,14,g,1,1.1579546660068445,sub-8924914
NA,NA,NA,NA,NA,NA,NA,blau,blue,b,1,NA,NA,NA,1,3,15,b,1,0.8462087969965069,sub-8924914
NA,NA,NA,NA,NA,NA,NA,rot,red,r,1,NA,NA,NA,1,4,16,r,1,1.0688637479906902,sub-8924914
NA,NA,NA,NA,NA,NA,NA,gelb,yellow,g,1,NA,NA,NA,1,5,17,g,1,0.8381582089932635,sub-8924914
NA,NA,NA,NA,NA,NA,NA,gelb,red,r,0,NA,NA,NA,1,6,18,r,1,4.025860644003842,sub-8924914
NA,NA,NA,NA,NA,NA,NA,blau,yellow,g,0,NA,NA,NA,1,7,19,g,1,1.1871428360027494,sub-8924914
NA,NA,NA,NA,NA,NA,NA,gelb,blue,b,0,NA,NA,NA,1,8,20,b,1,0.774162683999748,sub-8924914
NA,NA,NA,NA,NA,NA,NA,blau,red,r,0,NA,NA,NA,1,9,21,r,1,0.8966534490027698,sub-8924914
NA,NA,NA,NA,NA,NA,NA,rot,blue,b,0,NA,NA,NA,1,10,22,b,1,0.944068935001269,sub-8924914
NA,NA,NA,NA,NA,NA,NA,rot,red,r,1,NA,NA,NA,1,11,23,r,1,0.8424595240066992,sub-8924914
NA,NA,NA,NA,NA,NA,NA,rot,yellow,g,0,NA,NA,NA,2,0,24,g,1,1.0219144220027374,sub-8924914
NA,NA,NA,NA,NA,NA,NA,blau,red,r,0,NA,NA,NA,2,1,25,r,1,1.0297986619989388,sub-8924914
NA,NA,NA,NA,NA,NA,NA,rot,blue,b,0,NA,NA,NA,2,2,26,b,1,2.7208754399907775,sub-8924914
NA,NA,NA,NA,NA,NA,NA,blau,blue,b,1,NA,NA,NA,2,3,27,b,1,0.7625576959981117,sub-8924914
NA,NA,NA,NA,NA,NA,NA,rot,red,r,1,NA,NA,NA,2,4,28,r,1,0.6739407959976234,sub-8924914
NA,NA,NA,NA,NA,NA,NA,gelb,yellow,g,1,NA,NA,NA,2,5,29,g,1,0.6637894010054879,sub-8924914
NA,NA,NA,NA,NA,NA,NA,blau,blue,b,1,NA,NA,NA,2,6,30,b,1,0.8988518469996052,sub-8924914
NA,NA,NA,NA,NA,NA,NA,rot,red,r,1,NA,NA,NA,2,7,31,r,1,0.990316620998783,sub-8924914
NA,NA,NA,NA,NA,NA,NA,gelb,red,r,0,NA,NA,NA,2,8,32,r,1,0.914651559010963,sub-8924914
NA,NA,NA,NA,NA,NA,NA,gelb,blue,b,0,NA,NA,NA,2,9,33,b,1,2.2956661060015904,sub-8924914
NA,NA,NA,NA,NA,NA,NA,blau,yellow,g,0,NA,NA,NA,2,10,34,g,1,0.8885611369914841,sub-8924914
NA,NA,NA,NA,NA,NA,NA,gelb,yellow,g,1,NA,NA,NA,2,11,35,g,1,0.7452650460036239,sub-8924914
NA,NA,NA,NA,NA,NA,NA,blau,blue,b,1,NA,NA,NA,3,0,36,b,1,0.5957579929963686,sub-8924914
NA,NA,NA,NA,NA,NA,NA,blau,yellow,g,0,NA,NA,NA,3,1,37,g,1,0.9816485199989984,sub-8924914
NA,NA,NA,NA,NA,NA,NA,rot,yellow,g,0,NA,NA,NA,3,2,38,g,1,0.6048020540038124,sub-8924914
NA,NA,NA,NA,NA,NA,NA,rot,blue,b,0,NA,NA,NA,3,3,39,b,1,0.8446144399931654,sub-8924914
NA,NA,NA,NA,NA,NA,NA,rot,red,r,1,NA,NA,NA,3,4,40,r,1,0.6567076360079227,sub-8924914
NA,NA,NA,NA,NA,NA,NA,gelb,yellow,g,1,NA,NA,NA,3,5,41,g,1,0.7108879330044147,sub-8924914
NA,NA,NA,NA,NA,NA,NA,gelb,yellow,g,1,NA,NA,NA,3,6,42,g,1,0.8569316379871452,sub-8924914
NA,NA,NA,NA,NA,NA,NA,rot,red,r,1,NA,NA,NA,3,7,43,r,1,1.122130214003846,sub-8924914
NA,NA,NA,NA,NA,NA,NA,gelb,red,r,0,NA,NA,NA,3,8,44,r,1,1.0874033699947177,sub-8924914
NA,NA,NA,NA,NA,NA,NA,blau,blue,b,1,NA,NA,NA,3,9,45,b,1,0.619448666999233,sub-8924914
NA,NA,NA,NA,NA,NA,NA,blau,red,r,0,NA,NA,NA,3,10,46,r,1,1.0790078150021143,sub-8924914
NA,NA,NA,NA,NA,NA,NA,gelb,blue,b,0,NA,NA,NA,3,11,47,b,1,0.8707939279993298,sub-8924914
NA,NA,NA,NA,NA,NA,NA,blau,yellow,g,0,NA,NA,NA,4,0,48,g,1,0.8270073049934581,sub-8924914
NA,NA,NA,NA,NA,NA,NA,blau,red,r,0,NA,NA,NA,4,1,49,r,1,1.014673188998131,sub-8924914
NA,NA,NA,NA,NA,NA,NA,blau,blue,b,1,NA,NA,NA,4,2,50,b,1,0.7973834699951112,sub-8924914
NA,NA,NA,NA,NA,NA,NA,rot,red,r,1,NA,NA,NA,4,3,51,r,1,1.0073195589939132,sub-8924914
NA,NA,NA,NA,NA,NA,NA,gelb,yellow,g,1,NA,NA,NA,4,4,52,g,1,0.7350568169931648,sub-8924914
NA,NA,NA,NA,NA,NA,NA,rot,blue,b,0,NA,NA,NA,4,5,53,b,1,0.658700644999044,sub-8924914
NA,NA,NA,NA,NA,NA,NA,rot,red,r,1,NA,NA,NA,4,6,54,r,1,0.8784845649934141,sub-8924914
NA,NA,NA,NA,NA,NA,NA,gelb,yellow,g,1,NA,NA,NA,4,7,55,g,1,0.8141583659889875,sub-8924914
NA,NA,NA,NA,NA,NA,NA,gelb,red,r,0,NA,NA,NA,4,8,56,r,1,1.1802027669909876,sub-8924914
NA,NA,NA,NA,NA,NA,NA,blau,blue,b,1,NA,NA,NA,4,9,57,b,1,0.7214160850126063,sub-8924914
NA,NA,NA,NA,NA,NA,NA,gelb,blue,b,0,NA,NA,NA,4,10,58,b,1,1.4307133949914714,sub-8924914
NA,NA,NA,NA,NA,NA,NA,rot,yellow,g,0,NA,NA,NA,4,11,59,g,1,1.3789980230067158,sub-8924914
NA,NA,NA,NA,NA,NA,NA,rot,blue,b,0,NA,NA,NA,5,0,60,b,1,0.7359003519959515,sub-8924914
NA,NA,NA,NA,NA,NA,NA,blau,blue,b,1,NA,NA,NA,5,1,61,b,1,0.7548540730058448,sub-8924914
NA,NA,NA,NA,NA,NA,NA,rot,red,r,1,NA,NA,NA,5,2,62,r,1,0.5287864559941227,sub-8924914
NA,NA,NA,NA,NA,NA,NA,gelb,yellow,g,1,NA,NA,NA,5,3,63,g,1,0.7698017219954636,sub-8924914
NA,NA,NA,NA,NA,NA,NA,blau,yellow,g,0,NA,NA,NA,5,4,64,g,1,1.034379036995233,sub-8924914
NA,NA,NA,NA,NA,NA,NA,blau,red,r,0,NA,NA,NA,5,5,65,r,1,1.0379558069980703,sub-8924914
NA,NA,NA,NA,NA,NA,NA,gelb,red,r,0,NA,NA,NA,5,6,66,r,1,1.4418165419920117,sub-8924914
NA,NA,NA,NA,NA,NA,NA,rot,red,r,1,NA,NA,NA,5,7,67,r,1,1.0263580970058683,sub-8924914
NA,NA,NA,NA,NA,NA,NA,gelb,blue,b,0,NA,NA,NA,5,8,68,b,1,0.9719534239993664,sub-8924914
NA,NA,NA,NA,NA,NA,NA,blau,blue,b,1,NA,NA,NA,5,9,69,b,1,0.8245502620120533,sub-8924914
NA,NA,NA,NA,NA,NA,NA,rot,yellow,g,0,NA,NA,NA,5,10,70,g,1,1.0270489109971097,sub-8924914
NA,NA,NA,NA,NA,NA,NA,gelb,yellow,g,1,NA,NA,NA,5,11,71,g,1,0.7678815190010937,sub-8924914
NA,NA,NA,NA,NA,NA,NA,gelb,yellow,g,1,NA,NA,NA,6,0,72,g,1,0.8022090680024121,sub-8924914
NA,NA,NA,NA,NA,NA,NA,rot,blue,b,0,NA,NA,NA,6,1,73,b,1,0.9968069790047592,sub-8924914
NA,NA,NA,NA,NA,NA,NA,blau,blue,b,1,NA,NA,NA,6,2,74,b,1,0.916519803009578,sub-8924914
NA,NA,NA,NA,NA,NA,NA,gelb,blue,b,0,NA,NA,NA,6,3,75,b,1,0.9163390869944124,sub-8924914
NA,NA,NA,NA,NA,NA,NA,blau,yellow,g,0,NA,NA,NA,6,4,76,g,1,1.427521256002365,sub-8924914
NA,NA,NA,NA,NA,NA,NA,rot,yellow,g,0,NA,NA,NA,6,5,77,g,1,0.8439841689978493,sub-8924914
NA,NA,NA,NA,NA,NA,NA,gelb,red,r,0,NA,NA,NA,6,6,78,r,1,1.2046888729964849,sub-8924914
NA,NA,NA,NA,NA,NA,NA,gelb,yellow,g,1,NA,NA,NA,6,7,79,g,1,0.8338307829981204,sub-8924914
NA,NA,NA,NA,NA,NA,NA,blau,blue,b,1,NA,NA,NA,6,8,80,b,1,0.8100849000038579,sub-8924914
NA,NA,NA,NA,NA,NA,NA,rot,red,r,1,NA,NA,NA,6,9,81,r,1,0.7734855800081277,sub-8924914
NA,NA,NA,NA,NA,NA,NA,rot,red,r,1,NA,NA,NA,6,10,82,r,1,0.6264525730075547,sub-8924914
NA,NA,NA,NA,NA,NA,NA,blau,red,r,0,NA,NA,NA,6,11,83,r,1,1.014250677995733,sub-8924914
NA,NA,NA,NA,NA,NA,NA,blau,blue,b,1,NA,NA,NA,7,0,84,b,1,0.727674585999921,sub-8924914
NA,NA,NA,NA,NA,NA,NA,rot,blue,b,0,NA,NA,NA,7,1,85,b,1,1.0989082159940151,sub-8924914
NA,NA,NA,NA,NA,NA,NA,blau,red,r,0,NA,NA,NA,7,2,86,r,1,1.9686902029934572,sub-8924914
NA,NA,NA,NA,NA,NA,NA,rot,yellow,g,0,NA,NA,NA,7,3,87,g,1,1.1309916809987044,sub-8924914
NA,NA,NA,NA,NA,NA,NA,blau,blue,b,1,NA,NA,NA,7,4,88,b,1,1.1336457440047525,sub-8924914
NA,NA,NA,NA,NA,NA,NA,rot,red,r,1,NA,NA,NA,7,5,89,r,1,1.4527320729976054,sub-8924914
NA,NA,NA,NA,NA,NA,NA,gelb,blue,b,0,NA,NA,NA,7,6,90,b,1,1.06384382500255,sub-8924914
NA,NA,NA,NA,NA,NA,NA,gelb,yellow,g,1,NA,NA,NA,7,7,91,g,1,0.8154334270075196,sub-8924914
NA,NA,NA,NA,NA,NA,NA,rot,red,r,1,NA,NA,NA,7,8,92,r,1,1.5546350119984709,sub-8924914
NA,NA,NA,NA,NA,NA,NA,gelb,red,r,0,NA,NA,NA,7,9,93,r,1,0.8990930449945154,sub-8924914
NA,NA,NA,NA,NA,NA,NA,blau,yellow,g,0,NA,NA,NA,7,10,94,g,1,1.0132147789990995,sub-8924914
NA,NA,NA,NA,NA,NA,NA,gelb,yellow,g,1,NA,NA,NA,7,11,95,g,1,0.7551930210029241,sub-8924914
NA,NA,NA,NA,NA,NA,NA,blau,yellow,g,0,NA,NA,NA,8,0,96,g,1,0.7099395219993312,sub-8924914
NA,NA,NA,NA,NA,NA,NA,blau,blue,b,1,NA,NA,NA,8,1,97,b,1,0.8327540000027511,sub-8924914
NA,NA,NA,NA,NA,NA,NA,rot,red,r,1,NA,NA,NA,8,2,98,r,1,1.3062039439973887,sub-8924914
NA,NA,NA,NA,NA,NA,NA,blau,blue,b,1,NA,NA,NA,8,3,99,b,1,0.9090771220071474,sub-8924914
NA,NA,NA,NA,NA,NA,NA,gelb,blue,b,0,NA,NA,NA,8,4,100,b,1,1.2862912070122547,sub-8924914
NA,NA,NA,NA,NA,NA,NA,rot,yellow,g,0,NA,NA,NA,8,5,101,g,1,1.395259665005142,sub-8924914
NA,NA,NA,NA,NA,NA,NA,rot,blue,b,0,NA,NA,NA,8,6,102,b,1,0.8720362559979549,sub-8924914
NA,NA,NA,NA,NA,NA,NA,blau,red,r,0,NA,NA,NA,8,7,103,r,1,0.8381794629967771,sub-8924914
NA,NA,NA,NA,NA,NA,NA,gelb,yellow,g,1,NA,NA,NA,8,8,104,g,1,0.739700806007022,sub-8924914
NA,NA,NA,NA,NA,NA,NA,gelb,yellow,g,1,NA,NA,NA,8,9,105,g,1,0.8640804580063559,sub-8924914
NA,NA,NA,NA,NA,NA,NA,gelb,red,r,0,NA,NA,NA,8,10,106,r,1,0.9240755460050424,sub-8924914
NA,NA,NA,NA,NA,NA,NA,rot,red,r,1,NA,NA,NA,8,11,107,r,1,1.024850658010109,sub-8924914
NA,NA,NA,NA,NA,NA,NA,gelb,red,r,0,NA,NA,NA,9,0,108,r,1,1.2452104420081014,sub-8924914
NA,NA,NA,NA,NA,NA,NA,blau,yellow,g,0,NA,NA,NA,9,1,109,g,1,1.077760391010088,sub-8924914
NA,NA,NA,NA,NA,NA,NA,rot,yellow,g,0,NA,NA,NA,9,2,110,g,1,0.8099366030073725,sub-8924914
NA,NA,NA,NA,NA,NA,NA,gelb,yellow,g,1,NA,NA,NA,9,3,111,g,1,0.8386107539990917,sub-8924914
NA,NA,NA,NA,NA,NA,NA,blau,blue,b,1,NA,NA,NA,9,4,112,b,1,1.1627611910080304,sub-8924914
NA,NA,NA,NA,NA,NA,NA,rot,blue,b,0,NA,NA,NA,9,5,113,b,1,0.6358650310139637,sub-8924914
NA,NA,NA,NA,NA,NA,NA,rot,red,r,1,NA,NA,NA,9,6,114,r,1,0.5978889200050617,sub-8924914
NA,NA,NA,NA,NA,NA,NA,blau,blue,b,1,NA,NA,NA,9,7,115,b,1,0.9744262720050756,sub-8924914
NA,NA,NA,NA,NA,NA,NA,blau,red,r,0,NA,NA,NA,9,8,116,r,1,1.0170377179892969,sub-8924914
NA,NA,NA,NA,NA,NA,NA,rot,red,r,1,NA,NA,NA,9,9,117,r,1,0.6050156999990577,sub-8924914
NA,NA,NA,NA,NA,NA,NA,gelb,yellow,g,1,NA,NA,NA,9,10,118,g,1,1.186599014996318,sub-8924914
NA,NA,NA,NA,NA,NA,NA,gelb,blue,b,0,NA,NA,NA,9,11,119,b,1,0.935941322997678,sub-8924914
NA,NA,NA,NA,NA,NA,NA,NA,NA,NA,NA,NA,NA,NA,NA,NA,NA,NA,NA,NA,sub-8924914
