wordCTK,colorCTK,corrAnsCTK,congruentCTK,wordPractice,colorPractice,congruentPractice,word,color,corrAns,congruent,trials_practice.thisRepN,trials_practice.thisTrialN,trials_practice.thisN,trials_test.thisRepN,trials_test.thisTrialN,trials_test.thisN,keyResp_test_run.keys,keyResp_test_run.corr,keyResp_test_run.rt,participant
NA,NA,NA,NA,NA,NA,NA,NA,NA,NA,NA,NA,NA,NA,NA,NA,NA,NA,NA,NA,sub-39064426
NA,NA,NA,NA,NA,NA,NA,NA,NA,NA,NA,NA,NA,NA,NA,NA,NA,NA,NA,NA,sub-39064426
test,red,r,1,NA,NA,NA,NA,NA,NA,NA,NA,NA,NA,NA,NA,NA,NA,NA,NA,sub-39064426
test,blue,b,1,NA,NA,NA,NA,NA,NA,NA,NA,NA,NA,NA,NA,NA,NA,NA,NA,sub-39064426
test,yellow,g,1,NA,NA,NA,NA,NA,NA,NA,NA,NA,NA,NA,NA,NA,NA,NA,NA,sub-39064426
test,red,r,1,NA,NA,NA,NA,NA,NA,NA,NA,NA,NA,NA,NA,NA,NA,NA,NA,sub-39064426
test,blue,b,1,NA,NA,NA,NA,NA,NA,NA,NA,NA,NA,NA,NA,NA,NA,NA,NA,sub-39064426
test,yellow,g,1,NA,NA,NA,NA,NA,NA,NA,NA,NA,NA,NA,NA,NA,NA,NA,NA,sub-39064426
test,blue,b,1,NA,NA,NA,NA,NA,NA,NA,NA,NA,NA,NA,NA,NA,NA,NA,NA,sub-39064426
test,red,r,1,NA,NA,NA,NA,NA,NA,NA,NA,NA,NA,NA,NA,NA,NA,NA,NA,sub-39064426
test,yellow,g,1,NA,NA,NA,NA,NA,NA,NA,NA,NA,NA,NA,NA,NA,NA,NA,NA,sub-39064426
test,red,r,1,NA,NA,NA,NA,NA,NA,NA,NA,NA,NA,NA,NA,NA,NA,NA,NA,sub-39064426
test,yellow,g,1,NA,NA,NA,NA,NA,NA,NA,NA,NA,NA,NA,NA,NA,NA,NA,NA,sub-39064426
test,blue,b,1,NA,NA,NA,NA,NA,NA,NA,NA,NA,NA,NA,NA,NA,NA,NA,NA,sub-39064426
NA,NA,NA,NA,NA,NA,NA,NA,NA,NA,NA,NA,NA,NA,NA,NA,NA,NA,NA,NA,sub-39064426
NA,NA,NA,NA,gelb,yellow,1,NA,NA,NA,NA,0,0,0,NA,NA,NA,NA,NA,NA,sub-39064426
NA,NA,NA,NA,rot,red,1,NA,NA,NA,NA,0,1,1,NA,NA,NA,NA,NA,NA,sub-39064426
NA,NA,NA,NA,rot,yellow,0,NA,NA,NA,NA,0,2,2,NA,NA,NA,NA,NA,NA,sub-39064426
NA,NA,NA,NA,blau,yellow,0,NA,NA,NA,NA,0,3,3,NA,NA,NA,NA,NA,NA,sub-39064426
NA,NA,NA,NA,blau,blue,1,NA,NA,NA,NA,0,4,4,NA,NA,NA,NA,NA,NA,sub-39064426
NA,NA,NA,NA,gelb,red,0,NA,NA,NA,NA,0,5,5,NA,NA,NA,NA,NA,NA,sub-39064426
NA,NA,NA,NA,blau,blue,1,NA,NA,NA,NA,0,6,6,NA,NA,NA,NA,NA,NA,sub-39064426
NA,NA,NA,NA,blau,red,0,NA,NA,NA,NA,0,7,7,NA,NA,NA,NA,NA,NA,sub-39064426
NA,NA,NA,NA,gelb,yellow,1,NA,NA,NA,NA,0,8,8,NA,NA,NA,NA,NA,NA,sub-39064426
NA,NA,NA,NA,rot,blue,0,NA,NA,NA,NA,0,9,9,NA,NA,NA,NA,NA,NA,sub-39064426
NA,NA,NA,NA,gelb,blue,0,NA,NA,NA,NA,0,10,10,NA,NA,NA,NA,NA,NA,sub-39064426
NA,NA,NA,NA,rot,red,1,NA,NA,NA,NA,0,11,11,NA,NA,NA,NA,NA,NA,sub-39064426
NA,NA,NA,NA,rot,blue,0,NA,NA,NA,NA,1,0,12,NA,NA,NA,NA,NA,NA,sub-39064426
NA,NA,NA,NA,rot,yellow,0,NA,NA,NA,NA,1,1,13,NA,NA,NA,NA,NA,NA,sub-39064426
NA,NA,NA,NA,gelb,blue,0,NA,NA,NA,NA,1,2,14,NA,NA,NA,NA,NA,NA,sub-39064426
NA,NA,NA,NA,gelb,red,0,NA,NA,NA,NA,1,3,15,NA,NA,NA,NA,NA,NA,sub-39064426
NA,NA,NA,NA,blau,blue,1,NA,NA,NA,NA,1,4,16,NA,NA,NA,NA,NA,NA,sub-39064426
NA,NA,NA,NA,gelb,yellow,1,NA,NA,NA,NA,1,5,17,NA,NA,NA,NA,NA,NA,sub-39064426
NA,NA,NA,NA,blau,blue,1,NA,NA,NA,NA,1,6,18,NA,NA,NA,NA,NA,NA,sub-39064426
NA,NA,NA,NA,blau,yellow,0,NA,NA,NA,NA,1,7,19,NA,NA,NA,NA,NA,NA,sub-39064426
NA,NA,NA,NA,rot,red,1,NA,NA,NA,NA,1,8,20,NA,NA,NA,NA,NA,NA,sub-39064426
NA,NA,NA,NA,blau,red,0,NA,NA,NA,NA,1,9,21,NA,NA,NA,NA,NA,NA,sub-39064426
NA,NA,NA,NA,gelb,yellow,1,NA,NA,NA,NA,1,10,22,NA,NA,NA,NA,NA,NA,sub-39064426
NA,NA,NA,NA,rot,red,1,NA,NA,NA,NA,1,11,23,NA,NA,NA,NA,NA,NA,sub-39064426
NA,NA,NA,NA,NA,NA,NA,NA,NA,NA,NA,NA,NA,NA,NA,NA,NA,NA,NA,NA,sub-39064426
NA,NA,NA,NA,NA,NA,NA,blau,blue,b,1,NA,NA,NA,0,0,0,b,1,0.8069310998544097,sub-39064426
NA,NA,NA,NA,NA,NA,NA,blau,blue,b,1,NA,NA,NA,0,1,1,b,1,0.7312479000538588,sub-39064426
NA,NA,NA,NA,NA,NA,NA,rot,blue,b,0,NA,NA,NA,0,2,2,b,1,0.6715849000029266,sub-39064426
NA,NA,NA,NA,NA,NA,NA,gelb,yellow,g,1,NA,NA,NA,0,3,3,g,1,0.6244533997960389,sub-39064426
NA,NA,NA,NA,NA,NA,NA,gelb,yellow,g,1,NA,NA,NA,0,4,4,g,1,0.5667087000329047,sub-39064426
NA,NA,NA,NA,NA,NA,NA,rot,yellow,g,0,NA,NA,NA,0,5,5,g,1,0.5108839999884367,sub-39064426
NA,NA,NA,NA,NA,NA,NA,gelb,blue,b,0,NA,NA,NA,0,6,6,b,1,0.5419433999340981,sub-39064426
NA,NA,NA,NA,NA,NA,NA,gelb,red,r,0,NA,NA,NA,0,7,7,r,1,0.6104675000533462,sub-39064426
NA,NA,NA,NA,NA,NA,NA,rot,red,r,1,NA,NA,NA,0,8,8,r,1,0.5847181000281125,sub-39064426
NA,NA,NA,NA,NA,NA,NA,rot,red,r,1,NA,NA,NA,0,9,9,r,1,0.6340574999339879,sub-39064426
NA,NA,NA,NA,NA,NA,NA,blau,yellow,g,0,NA,NA,NA,0,10,10,g,1,0.6522288999985904,sub-39064426
NA,NA,NA,NA,NA,NA,NA,blau,red,r,0,NA,NA,NA,0,11,11,r,1,0.5529540001880378,sub-39064426
NA,NA,NA,NA,NA,NA,NA,rot,blue,b,0,NA,NA,NA,1,0,12,b,1,0.7035699000116438,sub-39064426
NA,NA,NA,NA,NA,NA,NA,rot,red,r,1,NA,NA,NA,1,1,13,r,1,0.7713531998451799,sub-39064426
NA,NA,NA,NA,NA,NA,NA,blau,blue,b,1,NA,NA,NA,1,2,14,b,1,0.7497521000914276,sub-39064426
NA,NA,NA,NA,NA,NA,NA,blau,blue,b,1,NA,NA,NA,1,3,15,b,1,0.601130299968645,sub-39064426
NA,NA,NA,NA,NA,NA,NA,rot,red,r,1,NA,NA,NA,1,4,16,r,1,0.5324459001421928,sub-39064426
NA,NA,NA,NA,NA,NA,NA,blau,yellow,g,0,NA,NA,NA,1,5,17,g,1,0.6445363000966609,sub-39064426
NA,NA,NA,NA,NA,NA,NA,blau,red,r,0,NA,NA,NA,1,6,18,r,1,0.8351048000622541,sub-39064426
NA,NA,NA,NA,NA,NA,NA,gelb,yellow,g,1,NA,NA,NA,1,7,19,g,1,0.7482636000495404,sub-39064426
NA,NA,NA,NA,NA,NA,NA,rot,yellow,g,0,NA,NA,NA,1,8,20,g,1,0.6745208001229912,sub-39064426
NA,NA,NA,NA,NA,NA,NA,gelb,blue,b,0,NA,NA,NA,1,9,21,b,1,0.6571849999018013,sub-39064426
NA,NA,NA,NA,NA,NA,NA,gelb,yellow,g,1,NA,NA,NA,1,10,22,g,1,0.7399250001180917,sub-39064426
NA,NA,NA,NA,NA,NA,NA,gelb,red,r,0,NA,NA,NA,1,11,23,r,1,0.6737542001064867,sub-39064426
NA,NA,NA,NA,NA,NA,NA,gelb,yellow,g,1,NA,NA,NA,2,0,24,g,1,1.5085570998489857,sub-39064426
NA,NA,NA,NA,NA,NA,NA,rot,red,r,1,NA,NA,NA,2,1,25,r,1,0.5953583000227809,sub-39064426
NA,NA,NA,NA,NA,NA,NA,gelb,blue,b,0,NA,NA,NA,2,2,26,b,1,0.5975661999545991,sub-39064426
NA,NA,NA,NA,NA,NA,NA,rot,yellow,g,0,NA,NA,NA,2,3,27,g,1,0.6026382998097688,sub-39064426
NA,NA,NA,NA,NA,NA,NA,blau,blue,b,1,NA,NA,NA,2,4,28,b,1,0.5312711999285966,sub-39064426
NA,NA,NA,NA,NA,NA,NA,blau,yellow,g,0,NA,NA,NA,2,5,29,g,1,1.0275743000674993,sub-39064426
NA,NA,NA,NA,NA,NA,NA,gelb,yellow,g,1,NA,NA,NA,2,6,30,g,1,0.5554084999021143,sub-39064426
NA,NA,NA,NA,NA,NA,NA,gelb,red,r,0,NA,NA,NA,2,7,31,r,1,1.2449113000184298,sub-39064426
NA,NA,NA,NA,NA,NA,NA,rot,red,r,1,NA,NA,NA,2,8,32,r,1,0.6783833000808954,sub-39064426
NA,NA,NA,NA,NA,NA,NA,blau,blue,b,1,NA,NA,NA,2,9,33,b,1,0.5391214999835938,sub-39064426
NA,NA,NA,NA,NA,NA,NA,rot,blue,b,0,NA,NA,NA,2,10,34,b,1,0.5846346998587251,sub-39064426
NA,NA,NA,NA,NA,NA,NA,blau,red,r,0,NA,NA,NA,2,11,35,r,1,0.6880701000336558,sub-39064426
NA,NA,NA,NA,NA,NA,NA,blau,red,r,0,NA,NA,NA,3,0,36,r,1,0.6818870999850333,sub-39064426
NA,NA,NA,NA,NA,NA,NA,rot,yellow,g,0,NA,NA,NA,3,1,37,g,1,0.4335038000717759,sub-39064426
NA,NA,NA,NA,NA,NA,NA,gelb,red,r,0,NA,NA,NA,3,2,38,r,1,0.5904508999083191,sub-39064426
NA,NA,NA,NA,NA,NA,NA,blau,blue,b,1,NA,NA,NA,3,3,39,b,1,0.5791075001470745,sub-39064426
NA,NA,NA,NA,NA,NA,NA,blau,blue,b,1,NA,NA,NA,3,4,40,b,1,0.5808143001049757,sub-39064426
NA,NA,NA,NA,NA,NA,NA,gelb,yellow,g,1,NA,NA,NA,3,5,41,g,1,0.7674648999236524,sub-39064426
NA,NA,NA,NA,NA,NA,NA,rot,red,r,1,NA,NA,NA,3,6,42,r,1,0.4842157999519259,sub-39064426
NA,NA,NA,NA,NA,NA,NA,rot,red,r,1,NA,NA,NA,3,7,43,r,1,0.5092269000597298,sub-39064426
NA,NA,NA,NA,NA,NA,NA,gelb,blue,b,0,NA,NA,NA,3,8,44,b,1,0.6529071000404656,sub-39064426
NA,NA,NA,NA,NA,NA,NA,blau,yellow,g,0,NA,NA,NA,3,9,45,g,1,0.42941520013846457,sub-39064426
NA,NA,NA,NA,NA,NA,NA,rot,blue,b,0,NA,NA,NA,3,10,46,b,1,1.0319197000935674,sub-39064426
NA,NA,NA,NA,NA,NA,NA,gelb,yellow,g,1,NA,NA,NA,3,11,47,g,1,1.1622170000337064,sub-39064426
NA,NA,NA,NA,NA,NA,NA,gelb,blue,b,0,NA,NA,NA,4,0,48,b,1,0.788571699988097,sub-39064426
NA,NA,NA,NA,NA,NA,NA,blau,blue,b,1,NA,NA,NA,4,1,49,b,1,0.6067049999255687,sub-39064426
NA,NA,NA,NA,NA,NA,NA,gelb,yellow,g,1,NA,NA,NA,4,2,50,g,1,0.6999192999210209,sub-39064426
NA,NA,NA,NA,NA,NA,NA,gelb,red,r,0,NA,NA,NA,4,3,51,r,1,0.791531200055033,sub-39064426
NA,NA,NA,NA,NA,NA,NA,blau,blue,b,1,NA,NA,NA,4,4,52,b,1,0.7951422000769526,sub-39064426
NA,NA,NA,NA,NA,NA,NA,blau,yellow,g,0,NA,NA,NA,4,5,53,g,1,0.583537100115791,sub-39064426
NA,NA,NA,NA,NA,NA,NA,blau,red,r,0,NA,NA,NA,4,6,54,r,1,0.6231879000551999,sub-39064426
NA,NA,NA,NA,NA,NA,NA,rot,yellow,g,0,NA,NA,NA,4,7,55,g,1,0.5418396999593824,sub-39064426
NA,NA,NA,NA,NA,NA,NA,gelb,yellow,g,1,NA,NA,NA,4,8,56,g,1,0.4759613999631256,sub-39064426
NA,NA,NA,NA,NA,NA,NA,rot,blue,b,0,NA,NA,NA,4,9,57,b,1,0.6480376999825239,sub-39064426
NA,NA,NA,NA,NA,NA,NA,rot,red,r,1,NA,NA,NA,4,10,58,r,1,0.49280330003239214,sub-39064426
NA,NA,NA,NA,NA,NA,NA,rot,red,r,1,NA,NA,NA,4,11,59,r,1,0.5417855000123382,sub-39064426
NA,NA,NA,NA,NA,NA,NA,rot,red,r,1,NA,NA,NA,5,0,60,r,1,0.6067311000078917,sub-39064426
NA,NA,NA,NA,NA,NA,NA,gelb,yellow,g,1,NA,NA,NA,5,1,61,g,1,0.41860310011543334,sub-39064426
NA,NA,NA,NA,NA,NA,NA,rot,blue,b,0,NA,NA,NA,5,2,62,b,1,0.5262664000038058,sub-39064426
NA,NA,NA,NA,NA,NA,NA,gelb,yellow,g,1,NA,NA,NA,5,3,63,g,1,0.583297599805519,sub-39064426
NA,NA,NA,NA,NA,NA,NA,blau,blue,b,1,NA,NA,NA,5,4,64,b,1,0.6309105998370796,sub-39064426
NA,NA,NA,NA,NA,NA,NA,rot,red,r,1,NA,NA,NA,5,5,65,r,1,0.5123555001337081,sub-39064426
NA,NA,NA,NA,NA,NA,NA,gelb,blue,b,0,NA,NA,NA,5,6,66,b,1,0.6354255001060665,sub-39064426
NA,NA,NA,NA,NA,NA,NA,blau,yellow,g,0,NA,NA,NA,5,7,67,g,1,0.3590092998929322,sub-39064426
NA,NA,NA,NA,NA,NA,NA,rot,yellow,g,0,NA,NA,NA,5,8,68,g,1,0.5289467999245971,sub-39064426
NA,NA,NA,NA,NA,NA,NA,blau,red,r,0,NA,NA,NA,5,9,69,r,1,0.6548472000285983,sub-39064426
NA,NA,NA,NA,NA,NA,NA,gelb,red,r,0,NA,NA,NA,5,10,70,r,1,0.700231600087136,sub-39064426
NA,NA,NA,NA,NA,NA,NA,blau,blue,b,1,NA,NA,NA,5,11,71,b,1,0.5398004001472145,sub-39064426
NA,NA,NA,NA,NA,NA,NA,gelb,yellow,g,1,NA,NA,NA,6,0,72,g,1,0.3996483001392334,sub-39064426
NA,NA,NA,NA,NA,NA,NA,rot,red,r,1,NA,NA,NA,6,1,73,r,1,0.5519821001216769,sub-39064426
NA,NA,NA,NA,NA,NA,NA,rot,blue,b,0,NA,NA,NA,6,2,74,b,1,1.6366588999517262,sub-39064426
NA,NA,NA,NA,NA,NA,NA,gelb,yellow,g,1,NA,NA,NA,6,3,75,g,1,0.6662278000731021,sub-39064426
NA,NA,NA,NA,NA,NA,NA,rot,yellow,g,0,NA,NA,NA,6,4,76,g,1,0.6169794001616538,sub-39064426
NA,NA,NA,NA,NA,NA,NA,rot,red,r,1,NA,NA,NA,6,5,77,r,1,0.4521337999030948,sub-39064426
NA,NA,NA,NA,NA,NA,NA,blau,blue,b,1,NA,NA,NA,6,6,78,b,1,0.7034539999440312,sub-39064426
NA,NA,NA,NA,NA,NA,NA,blau,red,r,0,NA,NA,NA,6,7,79,r,1,0.9443177999928594,sub-39064426
NA,NA,NA,NA,NA,NA,NA,blau,yellow,g,0,NA,NA,NA,6,8,80,g,1,0.7510347000788897,sub-39064426
NA,NA,NA,NA,NA,NA,NA,gelb,blue,b,0,NA,NA,NA,6,9,81,b,1,0.7224582999479026,sub-39064426
NA,NA,NA,NA,NA,NA,NA,blau,blue,b,1,NA,NA,NA,6,10,82,b,1,0.7778312999289483,sub-39064426
NA,NA,NA,NA,NA,NA,NA,gelb,red,r,0,NA,NA,NA,6,11,83,r,1,0.8701200000941753,sub-39064426
NA,NA,NA,NA,NA,NA,NA,rot,red,r,1,NA,NA,NA,7,0,84,r,1,0.5821869000792503,sub-39064426
NA,NA,NA,NA,NA,NA,NA,blau,red,r,0,NA,NA,NA,7,1,85,r,1,0.5561603999231011,sub-39064426
NA,NA,NA,NA,NA,NA,NA,gelb,yellow,g,1,NA,NA,NA,7,2,86,g,1,0.5282757000532001,sub-39064426
NA,NA,NA,NA,NA,NA,NA,gelb,red,r,0,NA,NA,NA,7,3,87,r,1,0.7644359001424164,sub-39064426
NA,NA,NA,NA,NA,NA,NA,rot,blue,b,0,NA,NA,NA,7,4,88,b,1,0.4908312999177724,sub-39064426
NA,NA,NA,NA,NA,NA,NA,gelb,yellow,g,1,NA,NA,NA,7,5,89,r,0,0.5690097000915557,sub-39064426
NA,NA,NA,NA,NA,NA,NA,rot,yellow,g,0,NA,NA,NA,7,6,90,g,1,1.1547219001222402,sub-39064426
NA,NA,NA,NA,NA,NA,NA,blau,blue,b,1,NA,NA,NA,7,7,91,b,1,0.6349919999483973,sub-39064426
NA,NA,NA,NA,NA,NA,NA,blau,yellow,g,0,NA,NA,NA,7,8,92,g,1,1.1124544001650063,sub-39064426
NA,NA,NA,NA,NA,NA,NA,gelb,blue,b,0,NA,NA,NA,7,9,93,b,1,0.9021010000724344,sub-39064426
NA,NA,NA,NA,NA,NA,NA,rot,red,r,1,NA,NA,NA,7,10,94,r,1,0.7762367001269013,sub-39064426
NA,NA,NA,NA,NA,NA,NA,blau,blue,b,1,NA,NA,NA,7,11,95,b,1,0.5336572001688182,sub-39064426
NA,NA,NA,NA,NA,NA,NA,rot,red,r,1,NA,NA,NA,8,0,96,r,1,0.6442766999825835,sub-39064426
NA,NA,NA,NA,NA,NA,NA,rot,yellow,g,0,NA,NA,NA,8,1,97,g,1,0.4797760001383722,sub-39064426
NA,NA,NA,NA,NA,NA,NA,blau,blue,b,1,NA,NA,NA,8,2,98,b,1,1.0874089000280946,sub-39064426
NA,NA,NA,NA,NA,NA,NA,blau,red,r,0,NA,NA,NA,8,3,99,r,1,0.7378098999615759,sub-39064426
NA,NA,NA,NA,NA,NA,NA,gelb,yellow,g,1,NA,NA,NA,8,4,100,g,1,0.4896506001241505,sub-39064426
NA,NA,NA,NA,NA,NA,NA,gelb,red,r,0,NA,NA,NA,8,5,101,r,1,0.5320902999956161,sub-39064426
NA,NA,NA,NA,NA,NA,NA,rot,blue,b,0,NA,NA,NA,8,6,102,b,1,0.5182374999858439,sub-39064426
NA,NA,NA,NA,NA,NA,NA,blau,yellow,g,0,NA,NA,NA,8,7,103,g,1,0.932572799967602,sub-39064426
NA,NA,NA,NA,NA,NA,NA,blau,blue,b,1,NA,NA,NA,8,8,104,b,1,1.0675605998840183,sub-39064426
NA,NA,NA,NA,NA,NA,NA,gelb,blue,b,0,NA,NA,NA,8,9,105,b,1,0.7766774999909103,sub-39064426
NA,NA,NA,NA,NA,NA,NA,gelb,yellow,g,1,NA,NA,NA,8,10,106,g,1,1.4066484000068158,sub-39064426
NA,NA,NA,NA,NA,NA,NA,rot,red,r,1,NA,NA,NA,8,11,107,r,1,0.5605158999096602,sub-39064426
NA,NA,NA,NA,NA,NA,NA,rot,red,r,1,NA,NA,NA,9,0,108,r,1,0.5651216998230666,sub-39064426
NA,NA,NA,NA,NA,NA,NA,rot,yellow,g,0,NA,NA,NA,9,1,109,g,1,0.6602243999950588,sub-39064426
NA,NA,NA,NA,NA,NA,NA,gelb,yellow,g,1,NA,NA,NA,9,2,110,g,1,0.5099049001000822,sub-39064426
NA,NA,NA,NA,NA,NA,NA,gelb,blue,b,0,NA,NA,NA,9,3,111,b,1,0.5655892000067979,sub-39064426
NA,NA,NA,NA,NA,NA,NA,gelb,yellow,g,1,NA,NA,NA,9,4,112,g,1,0.4983302999753505,sub-39064426
NA,NA,NA,NA,NA,NA,NA,blau,blue,b,1,NA,NA,NA,9,5,113,b,1,0.6612588001880795,sub-39064426
NA,NA,NA,NA,NA,NA,NA,rot,red,r,1,NA,NA,NA,9,6,114,r,1,0.6201580001506954,sub-39064426
NA,NA,NA,NA,NA,NA,NA,gelb,red,r,0,NA,NA,NA,9,7,115,r,1,0.5522199999541044,sub-39064426
NA,NA,NA,NA,NA,NA,NA,blau,red,r,0,NA,NA,NA,9,8,116,r,1,0.5385036999359727,sub-39064426
NA,NA,NA,NA,NA,NA,NA,rot,blue,b,0,NA,NA,NA,9,9,117,b,1,0.9973385001067072,sub-39064426
NA,NA,NA,NA,NA,NA,NA,blau,yellow,g,0,NA,NA,NA,9,10,118,g,1,0.6591897001489997,sub-39064426
NA,NA,NA,NA,NA,NA,NA,blau,blue,b,1,NA,NA,NA,9,11,119,b,1,0.8204429999459535,sub-39064426
NA,NA,NA,NA,NA,NA,NA,NA,NA,NA,NA,NA,NA,NA,NA,NA,NA,NA,NA,NA,sub-39064426
