wordCTK,colorCTK,corrAnsCTK,congruentCTK,wordPractice,colorPractice,congruentPractice,word,color,corrAns,congruent,trials_practice.thisRepN,trials_practice.thisTrialN,trials_practice.thisN,trials_test.thisRepN,trials_test.thisTrialN,trials_test.thisN,keyResp_test_run.keys,keyResp_test_run.corr,keyResp_test_run.rt,participant
NA,NA,NA,NA,NA,NA,NA,NA,NA,NA,NA,NA,NA,NA,NA,NA,NA,NA,NA,NA,sub-25295984
NA,NA,NA,NA,NA,NA,NA,NA,NA,NA,NA,NA,NA,NA,NA,NA,NA,NA,NA,NA,sub-25295984
test,red,r,1,NA,NA,NA,NA,NA,NA,NA,NA,NA,NA,NA,NA,NA,NA,NA,NA,sub-25295984
test,yellow,g,1,NA,NA,NA,NA,NA,NA,NA,NA,NA,NA,NA,NA,NA,NA,NA,NA,sub-25295984
test,blue,b,1,NA,NA,NA,NA,NA,NA,NA,NA,NA,NA,NA,NA,NA,NA,NA,NA,sub-25295984
test,blue,b,1,NA,NA,NA,NA,NA,NA,NA,NA,NA,NA,NA,NA,NA,NA,NA,NA,sub-25295984
test,red,r,1,NA,NA,NA,NA,NA,NA,NA,NA,NA,NA,NA,NA,NA,NA,NA,NA,sub-25295984
test,yellow,g,1,NA,NA,NA,NA,NA,NA,NA,NA,NA,NA,NA,NA,NA,NA,NA,NA,sub-25295984
test,red,r,1,NA,NA,NA,NA,NA,NA,NA,NA,NA,NA,NA,NA,NA,NA,NA,NA,sub-25295984
test,yellow,g,1,NA,NA,NA,NA,NA,NA,NA,NA,NA,NA,NA,NA,NA,NA,NA,NA,sub-25295984
test,blue,b,1,NA,NA,NA,NA,NA,NA,NA,NA,NA,NA,NA,NA,NA,NA,NA,NA,sub-25295984
test,blue,b,1,NA,NA,NA,NA,NA,NA,NA,NA,NA,NA,NA,NA,NA,NA,NA,NA,sub-25295984
test,yellow,g,1,NA,NA,NA,NA,NA,NA,NA,NA,NA,NA,NA,NA,NA,NA,NA,NA,sub-25295984
test,red,r,1,NA,NA,NA,NA,NA,NA,NA,NA,NA,NA,NA,NA,NA,NA,NA,NA,sub-25295984
NA,NA,NA,NA,NA,NA,NA,NA,NA,NA,NA,NA,NA,NA,NA,NA,NA,NA,NA,NA,sub-25295984
NA,NA,NA,NA,blau,yellow,0,NA,NA,NA,NA,0,0,0,NA,NA,NA,NA,NA,NA,sub-25295984
NA,NA,NA,NA,blau,blue,1,NA,NA,NA,NA,0,1,1,NA,NA,NA,NA,NA,NA,sub-25295984
NA,NA,NA,NA,blau,blue,1,NA,NA,NA,NA,0,2,2,NA,NA,NA,NA,NA,NA,sub-25295984
NA,NA,NA,NA,rot,blue,0,NA,NA,NA,NA,0,3,3,NA,NA,NA,NA,NA,NA,sub-25295984
NA,NA,NA,NA,gelb,yellow,1,NA,NA,NA,NA,0,4,4,NA,NA,NA,NA,NA,NA,sub-25295984
NA,NA,NA,NA,gelb,red,0,NA,NA,NA,NA,0,5,5,NA,NA,NA,NA,NA,NA,sub-25295984
NA,NA,NA,NA,blau,red,0,NA,NA,NA,NA,0,6,6,NA,NA,NA,NA,NA,NA,sub-25295984
NA,NA,NA,NA,rot,red,1,NA,NA,NA,NA,0,7,7,NA,NA,NA,NA,NA,NA,sub-25295984
NA,NA,NA,NA,gelb,yellow,1,NA,NA,NA,NA,0,8,8,NA,NA,NA,NA,NA,NA,sub-25295984
NA,NA,NA,NA,rot,yellow,0,NA,NA,NA,NA,0,9,9,NA,NA,NA,NA,NA,NA,sub-25295984
NA,NA,NA,NA,gelb,blue,0,NA,NA,NA,NA,0,10,10,NA,NA,NA,NA,NA,NA,sub-25295984
NA,NA,NA,NA,rot,red,1,NA,NA,NA,NA,0,11,11,NA,NA,NA,NA,NA,NA,sub-25295984
NA,NA,NA,NA,rot,red,1,NA,NA,NA,NA,1,0,12,NA,NA,NA,NA,NA,NA,sub-25295984
NA,NA,NA,NA,gelb,yellow,1,NA,NA,NA,NA,1,1,13,NA,NA,NA,NA,NA,NA,sub-25295984
NA,NA,NA,NA,rot,blue,0,NA,NA,NA,NA,1,2,14,NA,NA,NA,NA,NA,NA,sub-25295984
NA,NA,NA,NA,rot,red,1,NA,NA,NA,NA,1,3,15,NA,NA,NA,NA,NA,NA,sub-25295984
NA,NA,NA,NA,gelb,yellow,1,NA,NA,NA,NA,1,4,16,NA,NA,NA,NA,NA,NA,sub-25295984
NA,NA,NA,NA,blau,red,0,NA,NA,NA,NA,1,5,17,NA,NA,NA,NA,NA,NA,sub-25295984
NA,NA,NA,NA,rot,yellow,0,NA,NA,NA,NA,1,6,18,NA,NA,NA,NA,NA,NA,sub-25295984
NA,NA,NA,NA,blau,yellow,0,NA,NA,NA,NA,1,7,19,NA,NA,NA,NA,NA,NA,sub-25295984
NA,NA,NA,NA,gelb,blue,0,NA,NA,NA,NA,1,8,20,NA,NA,NA,NA,NA,NA,sub-25295984
NA,NA,NA,NA,gelb,red,0,NA,NA,NA,NA,1,9,21,NA,NA,NA,NA,NA,NA,sub-25295984
NA,NA,NA,NA,blau,blue,1,NA,NA,NA,NA,1,10,22,NA,NA,NA,NA,NA,NA,sub-25295984
NA,NA,NA,NA,blau,blue,1,NA,NA,NA,NA,1,11,23,NA,NA,NA,NA,NA,NA,sub-25295984
NA,NA,NA,NA,NA,NA,NA,NA,NA,NA,NA,NA,NA,NA,NA,NA,NA,NA,NA,NA,sub-25295984
NA,NA,NA,NA,NA,NA,NA,blau,red,r,0,NA,NA,NA,0,0,0,r,1,1.280070292,sub-25295984
NA,NA,NA,NA,NA,NA,NA,rot,yellow,g,0,NA,NA,NA,0,1,1,g,1,0.863191125,sub-25295984
NA,NA,NA,NA,NA,NA,NA,rot,red,r,1,NA,NA,NA,0,2,2,r,1,0.643333958,sub-25295984
NA,NA,NA,NA,NA,NA,NA,blau,yellow,g,0,NA,NA,NA,0,3,3,g,1,0.853699292,sub-25295984
NA,NA,NA,NA,NA,NA,NA,gelb,yellow,g,1,NA,NA,NA,0,4,4,g,1,0.83177112499999994,sub-25295984
NA,NA,NA,NA,NA,NA,NA,rot,red,r,1,NA,NA,NA,0,5,5,r,1,0.530974417,sub-25295984
NA,NA,NA,NA,NA,NA,NA,gelb,red,r,0,NA,NA,NA,0,6,6,r,1,1.426640959,sub-25295984
NA,NA,NA,NA,NA,NA,NA,rot,blue,b,0,NA,NA,NA,0,7,7,b,1,0.871920917,sub-25295984
NA,NA,NA,NA,NA,NA,NA,blau,blue,b,1,NA,NA,NA,0,8,8,b,1,1.0493105,sub-25295984
NA,NA,NA,NA,NA,NA,NA,blau,blue,b,1,NA,NA,NA,0,9,9,b,1,0.635049625,sub-25295984
NA,NA,NA,NA,NA,NA,NA,gelb,blue,b,0,NA,NA,NA,0,10,10,b,1,1.269399458,sub-25295984
NA,NA,NA,NA,NA,NA,NA,gelb,yellow,g,1,NA,NA,NA,0,11,11,g,1,1.427165625,sub-25295984
NA,NA,NA,NA,NA,NA,NA,gelb,yellow,g,1,NA,NA,NA,1,0,12,g,1,0.876239416,sub-25295984
NA,NA,NA,NA,NA,NA,NA,blau,yellow,g,0,NA,NA,NA,1,1,13,g,1,1.634322833,sub-25295984
NA,NA,NA,NA,NA,NA,NA,gelb,red,r,0,NA,NA,NA,1,2,14,r,1,1.543870625,sub-25295984
NA,NA,NA,NA,NA,NA,NA,blau,blue,b,1,NA,NA,NA,1,3,15,b,1,1.51509975,sub-25295984
NA,NA,NA,NA,NA,NA,NA,rot,red,r,1,NA,NA,NA,1,4,16,r,1,1.499168625,sub-25295984
NA,NA,NA,NA,NA,NA,NA,rot,red,r,1,NA,NA,NA,1,5,17,r,1,1.244643041,sub-25295984
NA,NA,NA,NA,NA,NA,NA,rot,yellow,g,0,NA,NA,NA,1,6,18,g,1,1.571728875,sub-25295984
NA,NA,NA,NA,NA,NA,NA,gelb,yellow,g,1,NA,NA,NA,1,7,19,g,1,1.399455834,sub-25295984
NA,NA,NA,NA,NA,NA,NA,blau,blue,b,1,NA,NA,NA,1,8,20,b,1,0.783017458,sub-25295984
NA,NA,NA,NA,NA,NA,NA,blau,red,r,0,NA,NA,NA,1,9,21,r,1,1.35979075,sub-25295984
NA,NA,NA,NA,NA,NA,NA,gelb,blue,b,0,NA,NA,NA,1,10,22,b,1,1.767954917,sub-25295984
NA,NA,NA,NA,NA,NA,NA,rot,blue,b,0,NA,NA,NA,1,11,23,b,1,2.251751125,sub-25295984
NA,NA,NA,NA,NA,NA,NA,blau,blue,b,1,NA,NA,NA,2,0,24,b,1,1.155245625,sub-25295984
NA,NA,NA,NA,NA,NA,NA,rot,red,r,1,NA,NA,NA,2,1,25,r,1,1.028360375,sub-25295984
NA,NA,NA,NA,NA,NA,NA,blau,red,r,0,NA,NA,NA,2,2,26,r,1,1.632986542,sub-25295984
NA,NA,NA,NA,NA,NA,NA,gelb,red,r,0,NA,NA,NA,2,3,27,r,1,1.099682125,sub-25295984
NA,NA,NA,NA,NA,NA,NA,gelb,yellow,g,1,NA,NA,NA,2,4,28,g,1,1.376044125,sub-25295984
NA,NA,NA,NA,NA,NA,NA,gelb,blue,b,0,NA,NA,NA,2,5,29,b,1,2.436413041,sub-25295984
NA,NA,NA,NA,NA,NA,NA,rot,blue,b,0,NA,NA,NA,2,6,30,b,1,1.712845417,sub-25295984
NA,NA,NA,NA,NA,NA,NA,rot,red,r,1,NA,NA,NA,2,7,31,r,1,1.742494542,sub-25295984
NA,NA,NA,NA,NA,NA,NA,rot,yellow,g,0,NA,NA,NA,2,8,32,g,1,1.280186917,sub-25295984
NA,NA,NA,NA,NA,NA,NA,gelb,yellow,g,1,NA,NA,NA,2,9,33,g,1,1.046119041,sub-25295984
NA,NA,NA,NA,NA,NA,NA,blau,yellow,g,0,NA,NA,NA,2,10,34,g,1,1.551356583,sub-25295984
NA,NA,NA,NA,NA,NA,NA,blau,blue,b,1,NA,NA,NA,2,11,35,b,1,1.044886334,sub-25295984
NA,NA,NA,NA,NA,NA,NA,blau,red,r,0,NA,NA,NA,3,0,36,r,1,0.914151083,sub-25295984
NA,NA,NA,NA,NA,NA,NA,rot,red,r,1,NA,NA,NA,3,1,37,r,1,1.615646334,sub-25295984
NA,NA,NA,NA,NA,NA,NA,gelb,red,r,0,NA,NA,NA,3,2,38,r,1,1.652438125,sub-25295984
NA,NA,NA,NA,NA,NA,NA,gelb,yellow,g,1,NA,NA,NA,3,3,39,g,1,0.944327458,sub-25295984
NA,NA,NA,NA,NA,NA,NA,blau,blue,b,1,NA,NA,NA,3,4,40,b,1,0.773419834,sub-25295984
NA,NA,NA,NA,NA,NA,NA,rot,yellow,g,0,NA,NA,NA,3,5,41,g,1,1.314514333,sub-25295984
NA,NA,NA,NA,NA,NA,NA,rot,blue,b,0,NA,NA,NA,3,6,42,b,1,0.925620375,sub-25295984
NA,NA,NA,NA,NA,NA,NA,blau,yellow,g,0,NA,NA,NA,3,7,43,g,1,0.888932417,sub-25295984
NA,NA,NA,NA,NA,NA,NA,gelb,blue,b,0,NA,NA,NA,3,8,44,b,1,1.168761791,sub-25295984
NA,NA,NA,NA,NA,NA,NA,gelb,yellow,g,1,NA,NA,NA,3,9,45,g,1,1.196333833,sub-25295984
NA,NA,NA,NA,NA,NA,NA,blau,blue,b,1,NA,NA,NA,3,10,46,b,1,1.096379125,sub-25295984
NA,NA,NA,NA,NA,NA,NA,rot,red,r,1,NA,NA,NA,3,11,47,r,1,0.956595667,sub-25295984
NA,NA,NA,NA,NA,NA,NA,gelb,yellow,g,1,NA,NA,NA,4,0,48,g,1,0.78396925,sub-25295984
NA,NA,NA,NA,NA,NA,NA,gelb,yellow,g,1,NA,NA,NA,4,1,49,g,1,1.234026459,sub-25295984
NA,NA,NA,NA,NA,NA,NA,gelb,red,r,0,NA,NA,NA,4,2,50,r,1,2.112126208,sub-25295984
NA,NA,NA,NA,NA,NA,NA,rot,red,r,1,NA,NA,NA,4,3,51,r,1,0.82119,sub-25295984
NA,NA,NA,NA,NA,NA,NA,gelb,blue,b,0,NA,NA,NA,4,4,52,b,1,1.245795584,sub-25295984
NA,NA,NA,NA,NA,NA,NA,rot,red,r,1,NA,NA,NA,4,5,53,r,1,1.517305667,sub-25295984
NA,NA,NA,NA,NA,NA,NA,rot,yellow,g,0,NA,NA,NA,4,6,54,g,1,1.296399334,sub-25295984
NA,NA,NA,NA,NA,NA,NA,blau,blue,b,1,NA,NA,NA,4,7,55,b,1,1.089992167,sub-25295984
NA,NA,NA,NA,NA,NA,NA,blau,red,r,0,NA,NA,NA,4,8,56,r,1,1.12033225,sub-25295984
NA,NA,NA,NA,NA,NA,NA,rot,blue,b,0,NA,NA,NA,4,9,57,b,1,1.267447458,sub-25295984
NA,NA,NA,NA,NA,NA,NA,blau,blue,b,1,NA,NA,NA,4,10,58,b,1,1.584006209,sub-25295984
NA,NA,NA,NA,NA,NA,NA,blau,yellow,g,0,NA,NA,NA,4,11,59,g,1,1.584750542,sub-25295984
NA,NA,NA,NA,NA,NA,NA,gelb,yellow,g,1,NA,NA,NA,5,0,60,g,1,2.262839541,sub-25295984
NA,NA,NA,NA,NA,NA,NA,rot,yellow,g,0,NA,NA,NA,5,1,61,g,1,1.191551667,sub-25295984
NA,NA,NA,NA,NA,NA,NA,blau,yellow,g,0,NA,NA,NA,5,2,62,g,1,0.812584333,sub-25295984
NA,NA,NA,NA,NA,NA,NA,gelb,red,r,0,NA,NA,NA,5,3,63,r,1,0.875478666,sub-25295984
NA,NA,NA,NA,NA,NA,NA,blau,blue,b,1,NA,NA,NA,5,4,64,b,1,0.975881125,sub-25295984
NA,NA,NA,NA,NA,NA,NA,blau,red,r,0,NA,NA,NA,5,5,65,r,1,1.864417583,sub-25295984
NA,NA,NA,NA,NA,NA,NA,rot,red,r,1,NA,NA,NA,5,6,66,r,1,1.293278041,sub-25295984
NA,NA,NA,NA,NA,NA,NA,gelb,yellow,g,1,NA,NA,NA,5,7,67,g,1,1.707222666,sub-25295984
NA,NA,NA,NA,NA,NA,NA,rot,red,r,1,NA,NA,NA,5,8,68,r,1,1.612731125,sub-25295984
NA,NA,NA,NA,NA,NA,NA,gelb,blue,b,0,NA,NA,NA,5,9,69,b,1,2.623923875,sub-25295984
NA,NA,NA,NA,NA,NA,NA,rot,blue,b,0,NA,NA,NA,5,10,70,b,1,1.292122625,sub-25295984
NA,NA,NA,NA,NA,NA,NA,blau,blue,b,1,NA,NA,NA,5,11,71,b,1,1.107784875,sub-25295984
NA,NA,NA,NA,NA,NA,NA,blau,blue,b,1,NA,NA,NA,6,0,72,b,1,1.517887875,sub-25295984
NA,NA,NA,NA,NA,NA,NA,blau,blue,b,1,NA,NA,NA,6,1,73,b,1,1.048813417,sub-25295984
NA,NA,NA,NA,NA,NA,NA,blau,yellow,g,0,NA,NA,NA,6,2,74,g,1,1.318795291,sub-25295984
NA,NA,NA,NA,NA,NA,NA,rot,red,r,1,NA,NA,NA,6,3,75,r,1,1.71599475,sub-25295984
NA,NA,NA,NA,NA,NA,NA,gelb,blue,b,0,NA,NA,NA,6,4,76,b,1,1.373359792,sub-25295984
NA,NA,NA,NA,NA,NA,NA,rot,blue,b,0,NA,NA,NA,6,5,77,b,1,1.280287416,sub-25295984
NA,NA,NA,NA,NA,NA,NA,rot,red,r,1,NA,NA,NA,6,6,78,r,1,1.548862542,sub-25295984
NA,NA,NA,NA,NA,NA,NA,gelb,yellow,g,1,NA,NA,NA,6,7,79,g,1,1.536334459,sub-25295984
NA,NA,NA,NA,NA,NA,NA,blau,red,r,0,NA,NA,NA,6,8,80,r,1,1.073067458,sub-25295984
NA,NA,NA,NA,NA,NA,NA,gelb,yellow,g,1,NA,NA,NA,6,9,81,g,1,0.7187835,sub-25295984
NA,NA,NA,NA,NA,NA,NA,gelb,red,r,0,NA,NA,NA,6,10,82,r,1,1.134017625,sub-25295984
NA,NA,NA,NA,NA,NA,NA,rot,yellow,g,0,NA,NA,NA,6,11,83,g,1,1.259284042,sub-25295984
NA,NA,NA,NA,NA,NA,NA,blau,red,r,0,NA,NA,NA,7,0,84,r,1,0.996325333,sub-25295984
NA,NA,NA,NA,NA,NA,NA,blau,blue,b,1,NA,NA,NA,7,1,85,b,1,1.103415042,sub-25295984
NA,NA,NA,NA,NA,NA,NA,rot,blue,b,0,NA,NA,NA,7,2,86,b,1,1.326700417,sub-25295984
NA,NA,NA,NA,NA,NA,NA,gelb,blue,b,0,NA,NA,NA,7,3,87,b,1,0.897491084,sub-25295984
NA,NA,NA,NA,NA,NA,NA,rot,yellow,g,0,NA,NA,NA,7,4,88,g,1,0.80251375,sub-25295984
NA,NA,NA,NA,NA,NA,NA,gelb,yellow,g,1,NA,NA,NA,7,5,89,g,1,0.867920292,sub-25295984
NA,NA,NA,NA,NA,NA,NA,gelb,red,r,0,NA,NA,NA,7,6,90,r,1,1.121866333,sub-25295984
NA,NA,NA,NA,NA,NA,NA,blau,yellow,g,0,NA,NA,NA,7,7,91,g,1,0.963232458,sub-25295984
NA,NA,NA,NA,NA,NA,NA,blau,blue,b,1,NA,NA,NA,7,8,92,b,1,0.732306333,sub-25295984
NA,NA,NA,NA,NA,NA,NA,rot,red,r,1,NA,NA,NA,7,9,93,r,1,0.739888708,sub-25295984
NA,NA,NA,NA,NA,NA,NA,rot,red,r,1,NA,NA,NA,7,10,94,r,1,0.733006,sub-25295984
NA,NA,NA,NA,NA,NA,NA,gelb,yellow,g,1,NA,NA,NA,7,11,95,g,1,0.790466292,sub-25295984
NA,NA,NA,NA,NA,NA,NA,rot,yellow,g,0,NA,NA,NA,8,0,96,g,1,0.8748185,sub-25295984
NA,NA,NA,NA,NA,NA,NA,blau,blue,b,1,NA,NA,NA,8,1,97,b,1,0.733972875,sub-25295984
NA,NA,NA,NA,NA,NA,NA,gelb,blue,b,0,NA,NA,NA,8,2,98,b,1,1.189804125,sub-25295984
NA,NA,NA,NA,NA,NA,NA,blau,yellow,g,0,NA,NA,NA,8,3,99,g,1,0.970591125,sub-25295984
NA,NA,NA,NA,NA,NA,NA,gelb,yellow,g,1,NA,NA,NA,8,4,100,g,1,0.715811083,sub-25295984
NA,NA,NA,NA,NA,NA,NA,gelb,yellow,g,1,NA,NA,NA,8,5,101,g,1,0.594284417,sub-25295984
NA,NA,NA,NA,NA,NA,NA,blau,red,r,0,NA,NA,NA,8,6,102,r,1,0.865729292,sub-25295984
NA,NA,NA,NA,NA,NA,NA,blau,blue,b,1,NA,NA,NA,8,7,103,b,1,0.828822458,sub-25295984
NA,NA,NA,NA,NA,NA,NA,rot,red,r,1,NA,NA,NA,8,8,104,r,1,0.77429625,sub-25295984
NA,NA,NA,NA,NA,NA,NA,rot,red,r,1,NA,NA,NA,8,9,105,r,1,0.653736375,sub-25295984
NA,NA,NA,NA,NA,NA,NA,rot,blue,b,0,NA,NA,NA,8,10,106,b,1,0.734213833,sub-25295984
NA,NA,NA,NA,NA,NA,NA,gelb,red,r,0,NA,NA,NA,8,11,107,r,1,0.885096792,sub-25295984
NA,NA,NA,NA,NA,NA,NA,gelb,yellow,g,1,NA,NA,NA,9,0,108,g,1,0.742381042,sub-25295984
NA,NA,NA,NA,NA,NA,NA,blau,blue,b,1,NA,NA,NA,9,1,109,b,1,0.765617333,sub-25295984
NA,NA,NA,NA,NA,NA,NA,blau,blue,b,1,NA,NA,NA,9,2,110,b,1,1.134436917,sub-25295984
NA,NA,NA,NA,NA,NA,NA,gelb,yellow,g,1,NA,NA,NA,9,3,111,g,1,0.663787875,sub-25295984
NA,NA,NA,NA,NA,NA,NA,rot,red,r,1,NA,NA,NA,9,4,112,r,1,0.778777417,sub-25295984
NA,NA,NA,NA,NA,NA,NA,rot,yellow,g,0,NA,NA,NA,9,5,113,g,1,1.176528958,sub-25295984
NA,NA,NA,NA,NA,NA,NA,blau,yellow,g,0,NA,NA,NA,9,6,114,g,1,1.078450458,sub-25295984
NA,NA,NA,NA,NA,NA,NA,gelb,red,r,0,NA,NA,NA,9,7,115,r,1,0.88550725,sub-25295984
NA,NA,NA,NA,NA,NA,NA,rot,blue,b,0,NA,NA,NA,9,8,116,b,1,1.042088542,sub-25295984
NA,NA,NA,NA,NA,NA,NA,gelb,blue,b,0,NA,NA,NA,9,9,117,b,1,1.144968709,sub-25295984
NA,NA,NA,NA,NA,NA,NA,blau,red,r,0,NA,NA,NA,9,10,118,r,1,1.284363208,sub-25295984
NA,NA,NA,NA,NA,NA,NA,rot,red,r,1,NA,NA,NA,9,11,119,r,1,0.877947542,sub-25295984
NA,NA,NA,NA,NA,NA,NA,NA,NA,NA,NA,NA,NA,NA,NA,NA,NA,NA,NA,NA,sub-25295984
