wordCTK,colorCTK,corrAnsCTK,congruentCTK,wordPractice,colorPractice,congruentPractice,word,color,corrAns,congruent,trials_practice.thisRepN,trials_practice.thisTrialN,trials_practice.thisN,trials_test.thisRepN,trials_test.thisTrialN,trials_test.thisN,keyResp_test_run.keys,keyResp_test_run.corr,keyResp_test_run.rt,participant
NA,NA,NA,NA,NA,NA,NA,NA,NA,NA,NA,NA,NA,NA,NA,NA,NA,NA,NA,NA,sub-66791828
NA,NA,NA,NA,NA,NA,NA,NA,NA,NA,NA,NA,NA,NA,NA,NA,NA,NA,NA,NA,sub-66791828
test,red,r,1,NA,NA,NA,NA,NA,NA,NA,NA,NA,NA,NA,NA,NA,NA,NA,NA,sub-66791828
test,blue,b,1,NA,NA,NA,NA,NA,NA,NA,NA,NA,NA,NA,NA,NA,NA,NA,NA,sub-66791828
test,yellow,g,1,NA,NA,NA,NA,NA,NA,NA,NA,NA,NA,NA,NA,NA,NA,NA,NA,sub-66791828
test,red,r,1,NA,NA,NA,NA,NA,NA,NA,NA,NA,NA,NA,NA,NA,NA,NA,NA,sub-66791828
test,yellow,g,1,NA,NA,NA,NA,NA,NA,NA,NA,NA,NA,NA,NA,NA,NA,NA,NA,sub-66791828
test,blue,b,1,NA,NA,NA,NA,NA,NA,NA,NA,NA,NA,NA,NA,NA,NA,NA,NA,sub-66791828
test,blue,b,1,NA,NA,NA,NA,NA,NA,NA,NA,NA,NA,NA,NA,NA,NA,NA,NA,sub-66791828
test,yellow,g,1,NA,NA,NA,NA,NA,NA,NA,NA,NA,NA,NA,NA,NA,NA,NA,NA,sub-66791828
test,red,r,1,NA,NA,NA,NA,NA,NA,NA,NA,NA,NA,NA,NA,NA,NA,NA,NA,sub-66791828
test,yellow,g,1,NA,NA,NA,NA,NA,NA,NA,NA,NA,NA,NA,NA,NA,NA,NA,NA,sub-66791828
test,blue,b,1,NA,NA,NA,NA,NA,NA,NA,NA,NA,NA,NA,NA,NA,NA,NA,NA,sub-66791828
test,red,r,1,NA,NA,NA,NA,NA,NA,NA,NA,NA,NA,NA,NA,NA,NA,NA,NA,sub-66791828
NA,NA,NA,NA,NA,NA,NA,NA,NA,NA,NA,NA,NA,NA,NA,NA,NA,NA,NA,NA,sub-66791828
NA,NA,NA,NA,blau,red,0,NA,NA,NA,NA,0,0,0,NA,NA,NA,NA,NA,NA,sub-66791828
NA,NA,NA,NA,rot,red,1,NA,NA,NA,NA,0,1,1,NA,NA,NA,NA,NA,NA,sub-66791828
NA,NA,NA,NA,gelb,blue,0,NA,NA,NA,NA,0,2,2,NA,NA,NA,NA,NA,NA,sub-66791828
NA,NA,NA,NA,gelb,yellow,1,NA,NA,NA,NA,0,3,3,NA,NA,NA,NA,NA,NA,sub-66791828
NA,NA,NA,NA,rot,blue,0,NA,NA,NA,NA,0,4,4,NA,NA,NA,NA,NA,NA,sub-66791828
NA,NA,NA,NA,gelb,red,0,NA,NA,NA,NA,0,5,5,NA,NA,NA,NA,NA,NA,sub-66791828
NA,NA,NA,NA,rot,red,1,NA,NA,NA,NA,0,6,6,NA,NA,NA,NA,NA,NA,sub-66791828
NA,NA,NA,NA,gelb,yellow,1,NA,NA,NA,NA,0,7,7,NA,NA,NA,NA,NA,NA,sub-66791828
NA,NA,NA,NA,blau,yellow,0,NA,NA,NA,NA,0,8,8,NA,NA,NA,NA,NA,NA,sub-66791828
NA,NA,NA,NA,rot,yellow,0,NA,NA,NA,NA,0,9,9,NA,NA,NA,NA,NA,NA,sub-66791828
NA,NA,NA,NA,blau,blue,1,NA,NA,NA,NA,0,10,10,NA,NA,NA,NA,NA,NA,sub-66791828
NA,NA,NA,NA,blau,blue,1,NA,NA,NA,NA,0,11,11,NA,NA,NA,NA,NA,NA,sub-66791828
NA,NA,NA,NA,rot,yellow,0,NA,NA,NA,NA,1,0,12,NA,NA,NA,NA,NA,NA,sub-66791828
NA,NA,NA,NA,gelb,blue,0,NA,NA,NA,NA,1,1,13,NA,NA,NA,NA,NA,NA,sub-66791828
NA,NA,NA,NA,blau,blue,1,NA,NA,NA,NA,1,2,14,NA,NA,NA,NA,NA,NA,sub-66791828
NA,NA,NA,NA,gelb,red,0,NA,NA,NA,NA,1,3,15,NA,NA,NA,NA,NA,NA,sub-66791828
NA,NA,NA,NA,blau,red,0,NA,NA,NA,NA,1,4,16,NA,NA,NA,NA,NA,NA,sub-66791828
NA,NA,NA,NA,rot,blue,0,NA,NA,NA,NA,1,5,17,NA,NA,NA,NA,NA,NA,sub-66791828
NA,NA,NA,NA,blau,yellow,0,NA,NA,NA,NA,1,6,18,NA,NA,NA,NA,NA,NA,sub-66791828
NA,NA,NA,NA,rot,red,1,NA,NA,NA,NA,1,7,19,NA,NA,NA,NA,NA,NA,sub-66791828
NA,NA,NA,NA,rot,red,1,NA,NA,NA,NA,1,8,20,NA,NA,NA,NA,NA,NA,sub-66791828
NA,NA,NA,NA,gelb,yellow,1,NA,NA,NA,NA,1,9,21,NA,NA,NA,NA,NA,NA,sub-66791828
NA,NA,NA,NA,blau,blue,1,NA,NA,NA,NA,1,10,22,NA,NA,NA,NA,NA,NA,sub-66791828
NA,NA,NA,NA,gelb,yellow,1,NA,NA,NA,NA,1,11,23,NA,NA,NA,NA,NA,NA,sub-66791828
NA,NA,NA,NA,NA,NA,NA,NA,NA,NA,NA,NA,NA,NA,NA,NA,NA,NA,NA,NA,sub-66791828
NA,NA,NA,NA,NA,NA,NA,rot,blue,b,0,NA,NA,NA,0,0,0,b,1,3.141778804,sub-66791828
NA,NA,NA,NA,NA,NA,NA,rot,red,r,1,NA,NA,NA,0,1,1,r,1,1.042746783,sub-66791828
NA,NA,NA,NA,NA,NA,NA,rot,red,r,1,NA,NA,NA,0,2,2,r,1,0.659644406,sub-66791828
NA,NA,NA,NA,NA,NA,NA,rot,yellow,g,0,NA,NA,NA,0,3,3,g,1,0.765982226,sub-66791828
NA,NA,NA,NA,NA,NA,NA,blau,blue,b,1,NA,NA,NA,0,4,4,b,1,0.564274109,sub-66791828
NA,NA,NA,NA,NA,NA,NA,blau,blue,b,1,NA,NA,NA,0,5,5,b,1,0.50479783,sub-66791828
NA,NA,NA,NA,NA,NA,NA,gelb,blue,b,0,NA,NA,NA,0,6,6,b,1,0.517601287,sub-66791828
NA,NA,NA,NA,NA,NA,NA,gelb,yellow,g,1,NA,NA,NA,0,7,7,g,1,2.340370869,sub-66791828
NA,NA,NA,NA,NA,NA,NA,gelb,yellow,g,1,NA,NA,NA,0,8,8,g,1,0.744461055,sub-66791828
NA,NA,NA,NA,NA,NA,NA,blau,red,r,0,NA,NA,NA,0,9,9,r,1,1.077497652,sub-66791828
NA,NA,NA,NA,NA,NA,NA,blau,yellow,g,0,NA,NA,NA,0,10,10,g,1,0.930328187,sub-66791828
NA,NA,NA,NA,NA,NA,NA,gelb,red,r,0,NA,NA,NA,0,11,11,r,1,0.829282193,sub-66791828
NA,NA,NA,NA,NA,NA,NA,gelb,red,r,0,NA,NA,NA,1,0,12,r,1,0.818009997,sub-66791828
NA,NA,NA,NA,NA,NA,NA,blau,red,r,0,NA,NA,NA,1,1,13,r,1,0.814925517,sub-66791828
NA,NA,NA,NA,NA,NA,NA,blau,blue,b,1,NA,NA,NA,1,2,14,b,1,0.592625689,sub-66791828
NA,NA,NA,NA,NA,NA,NA,blau,blue,b,1,NA,NA,NA,1,3,15,b,1,1.648833888,sub-66791828
NA,NA,NA,NA,NA,NA,NA,rot,red,r,1,NA,NA,NA,1,4,16,r,1,1.274323293,sub-66791828
NA,NA,NA,NA,NA,NA,NA,rot,yellow,g,0,NA,NA,NA,1,5,17,g,1,1.386397432,sub-66791828
NA,NA,NA,NA,NA,NA,NA,gelb,yellow,g,1,NA,NA,NA,1,6,18,g,1,0.623448381,sub-66791828
NA,NA,NA,NA,NA,NA,NA,rot,red,r,1,NA,NA,NA,1,7,19,r,1,1.621393968,sub-66791828
NA,NA,NA,NA,NA,NA,NA,blau,yellow,g,0,NA,NA,NA,1,8,20,g,1,1.226538596,sub-66791828
NA,NA,NA,NA,NA,NA,NA,gelb,blue,b,0,NA,NA,NA,1,9,21,b,1,2.783407175,sub-66791828
NA,NA,NA,NA,NA,NA,NA,gelb,yellow,g,1,NA,NA,NA,1,10,22,g,1,0.930359484,sub-66791828
NA,NA,NA,NA,NA,NA,NA,rot,blue,b,0,NA,NA,NA,1,11,23,g,0,1.72360995,sub-66791828
NA,NA,NA,NA,NA,NA,NA,blau,blue,b,1,NA,NA,NA,2,0,24,b,1,0.787421677,sub-66791828
NA,NA,NA,NA,NA,NA,NA,gelb,yellow,g,1,NA,NA,NA,2,1,25,g,1,1.129705875,sub-66791828
NA,NA,NA,NA,NA,NA,NA,blau,blue,b,1,NA,NA,NA,2,2,26,b,1,0.93421801,sub-66791828
NA,NA,NA,NA,NA,NA,NA,rot,yellow,g,0,NA,NA,NA,2,3,27,g,1,1.770282461,sub-66791828
NA,NA,NA,NA,NA,NA,NA,gelb,yellow,g,1,NA,NA,NA,2,4,28,g,1,0.827961992,sub-66791828
NA,NA,NA,NA,NA,NA,NA,blau,red,r,0,NA,NA,NA,2,5,29,r,1,0.755130104,sub-66791828
NA,NA,NA,NA,NA,NA,NA,rot,red,r,1,NA,NA,NA,2,6,30,r,1,0.721414839,sub-66791828
NA,NA,NA,NA,NA,NA,NA,blau,yellow,g,0,NA,NA,NA,2,7,31,g,1,1.032067432,sub-66791828
NA,NA,NA,NA,NA,NA,NA,rot,blue,b,0,NA,NA,NA,2,8,32,b,1,0.87510802,sub-66791828
NA,NA,NA,NA,NA,NA,NA,gelb,red,r,0,NA,NA,NA,2,9,33,r,1,0.653570046,sub-66791828
NA,NA,NA,NA,NA,NA,NA,rot,red,r,1,NA,NA,NA,2,10,34,r,1,0.716995751,sub-66791828
NA,NA,NA,NA,NA,NA,NA,gelb,blue,b,0,NA,NA,NA,2,11,35,b,1,1.488907277,sub-66791828
NA,NA,NA,NA,NA,NA,NA,blau,blue,b,1,NA,NA,NA,3,0,36,b,1,1.478794417,sub-66791828
NA,NA,NA,NA,NA,NA,NA,gelb,blue,b,0,NA,NA,NA,3,1,37,b,1,0.573020882,sub-66791828
NA,NA,NA,NA,NA,NA,NA,blau,red,r,0,NA,NA,NA,3,2,38,r,1,1.26250917,sub-66791828
NA,NA,NA,NA,NA,NA,NA,gelb,red,r,0,NA,NA,NA,3,3,39,r,1,0.787659596,sub-66791828
NA,NA,NA,NA,NA,NA,NA,gelb,yellow,g,1,NA,NA,NA,3,4,40,g,1,0.821527747,sub-66791828
NA,NA,NA,NA,NA,NA,NA,blau,blue,b,1,NA,NA,NA,3,5,41,b,1,0.470796097,sub-66791828
NA,NA,NA,NA,NA,NA,NA,rot,blue,b,0,NA,NA,NA,3,6,42,b,1,0.702407284,sub-66791828
NA,NA,NA,NA,NA,NA,NA,gelb,yellow,g,1,NA,NA,NA,3,7,43,g,1,0.65207102,sub-66791828
NA,NA,NA,NA,NA,NA,NA,rot,red,r,1,NA,NA,NA,3,8,44,r,1,1.217580983,sub-66791828
NA,NA,NA,NA,NA,NA,NA,rot,red,r,1,NA,NA,NA,3,9,45,r,1,0.719955315,sub-66791828
NA,NA,NA,NA,NA,NA,NA,rot,yellow,g,0,NA,NA,NA,3,10,46,g,1,0.816336217,sub-66791828
NA,NA,NA,NA,NA,NA,NA,blau,yellow,g,0,NA,NA,NA,3,11,47,g,1,0.440615843,sub-66791828
NA,NA,NA,NA,NA,NA,NA,rot,red,r,1,NA,NA,NA,4,0,48,r,1,0.676463994,sub-66791828
NA,NA,NA,NA,NA,NA,NA,blau,blue,b,1,NA,NA,NA,4,1,49,b,1,0.63429318,sub-66791828
NA,NA,NA,NA,NA,NA,NA,blau,blue,b,1,NA,NA,NA,4,2,50,b,1,1.086785781,sub-66791828
NA,NA,NA,NA,NA,NA,NA,rot,red,r,1,NA,NA,NA,4,3,51,r,1,0.79175605,sub-66791828
NA,NA,NA,NA,NA,NA,NA,blau,yellow,g,0,NA,NA,NA,4,4,52,g,1,1.709761728,sub-66791828
NA,NA,NA,NA,NA,NA,NA,blau,red,r,0,NA,NA,NA,4,5,53,r,1,0.764812237,sub-66791828
NA,NA,NA,NA,NA,NA,NA,gelb,red,r,0,NA,NA,NA,4,6,54,r,1,0.746205258,sub-66791828
NA,NA,NA,NA,NA,NA,NA,gelb,yellow,g,1,NA,NA,NA,4,7,55,g,1,1.080098492,sub-66791828
NA,NA,NA,NA,NA,NA,NA,gelb,blue,b,0,NA,NA,NA,4,8,56,b,1,0.988549857,sub-66791828
NA,NA,NA,NA,NA,NA,NA,rot,blue,b,0,NA,NA,NA,4,9,57,b,1,0.956267143,sub-66791828
NA,NA,NA,NA,NA,NA,NA,rot,yellow,g,0,NA,NA,NA,4,10,58,g,1,0.988768584,sub-66791828
NA,NA,NA,NA,NA,NA,NA,gelb,yellow,g,1,NA,NA,NA,4,11,59,g,1,0.787542131,sub-66791828
NA,NA,NA,NA,NA,NA,NA,gelb,yellow,g,1,NA,NA,NA,5,0,60,g,1,1.002068856,sub-66791828
NA,NA,NA,NA,NA,NA,NA,gelb,red,r,0,NA,NA,NA,5,1,61,r,1,1.408887381,sub-66791828
NA,NA,NA,NA,NA,NA,NA,blau,blue,b,1,NA,NA,NA,5,2,62,b,1,0.599762648,sub-66791828
NA,NA,NA,NA,NA,NA,NA,gelb,yellow,g,1,NA,NA,NA,5,3,63,g,1,0.938632923,sub-66791828
NA,NA,NA,NA,NA,NA,NA,blau,yellow,g,0,NA,NA,NA,5,4,64,g,1,0.858844263,sub-66791828
NA,NA,NA,NA,NA,NA,NA,rot,red,r,1,NA,NA,NA,5,5,65,r,1,0.655691181,sub-66791828
NA,NA,NA,NA,NA,NA,NA,blau,blue,b,1,NA,NA,NA,5,6,66,b,1,0.765752272,sub-66791828
NA,NA,NA,NA,NA,NA,NA,rot,yellow,g,0,NA,NA,NA,5,7,67,g,1,1.615293914,sub-66791828
NA,NA,NA,NA,NA,NA,NA,rot,red,r,1,NA,NA,NA,5,8,68,r,1,0.830981025,sub-66791828
NA,NA,NA,NA,NA,NA,NA,blau,red,r,0,NA,NA,NA,5,9,69,r,1,0.677326974,sub-66791828
NA,NA,NA,NA,NA,NA,NA,gelb,blue,b,0,NA,NA,NA,5,10,70,b,1,0.881401806,sub-66791828
NA,NA,NA,NA,NA,NA,NA,rot,blue,b,0,NA,NA,NA,5,11,71,b,1,0.844521376,sub-66791828
NA,NA,NA,NA,NA,NA,NA,gelb,blue,b,0,NA,NA,NA,6,0,72,b,1,1.551173397,sub-66791828
NA,NA,NA,NA,NA,NA,NA,rot,red,r,1,NA,NA,NA,6,1,73,r,1,0.598340476,sub-66791828
NA,NA,NA,NA,NA,NA,NA,blau,blue,b,1,NA,NA,NA,6,2,74,b,1,2.314979838,sub-66791828
NA,NA,NA,NA,NA,NA,NA,gelb,red,r,0,NA,NA,NA,6,3,75,r,1,0.673612605,sub-66791828
NA,NA,NA,NA,NA,NA,NA,gelb,yellow,g,1,NA,NA,NA,6,4,76,g,1,1.088248423,sub-66791828
NA,NA,NA,NA,NA,NA,NA,blau,yellow,g,0,NA,NA,NA,6,5,77,g,1,0.556605714,sub-66791828
NA,NA,NA,NA,NA,NA,NA,blau,red,r,0,NA,NA,NA,6,6,78,r,1,0.574574197,sub-66791828
NA,NA,NA,NA,NA,NA,NA,rot,red,r,1,NA,NA,NA,6,7,79,r,1,0.602260525,sub-66791828
NA,NA,NA,NA,NA,NA,NA,blau,blue,b,1,NA,NA,NA,6,8,80,b,1,0.564448724,sub-66791828
NA,NA,NA,NA,NA,NA,NA,rot,blue,b,0,NA,NA,NA,6,9,81,b,1,0.756247499,sub-66791828
NA,NA,NA,NA,NA,NA,NA,gelb,yellow,g,1,NA,NA,NA,6,10,82,g,1,0.745337042,sub-66791828
NA,NA,NA,NA,NA,NA,NA,rot,yellow,g,0,NA,NA,NA,6,11,83,g,1,1.517099,sub-66791828
NA,NA,NA,NA,NA,NA,NA,blau,blue,b,1,NA,NA,NA,7,0,84,b,1,0.702928181,sub-66791828
NA,NA,NA,NA,NA,NA,NA,rot,red,r,1,NA,NA,NA,7,1,85,r,1,0.800205309,sub-66791828
NA,NA,NA,NA,NA,NA,NA,gelb,yellow,g,1,NA,NA,NA,7,2,86,g,1,1.393463017,sub-66791828
NA,NA,NA,NA,NA,NA,NA,rot,yellow,g,0,NA,NA,NA,7,3,87,g,1,1.271257951,sub-66791828
NA,NA,NA,NA,NA,NA,NA,gelb,yellow,g,1,NA,NA,NA,7,4,88,g,1,0.562756641,sub-66791828
NA,NA,NA,NA,NA,NA,NA,rot,red,r,1,NA,NA,NA,7,5,89,r,1,3.054820413,sub-66791828
NA,NA,NA,NA,NA,NA,NA,rot,blue,b,0,NA,NA,NA,7,6,90,b,1,0.720622603,sub-66791828
NA,NA,NA,NA,NA,NA,NA,gelb,blue,b,0,NA,NA,NA,7,7,91,b,1,0.997819581,sub-66791828
NA,NA,NA,NA,NA,NA,NA,blau,yellow,g,0,NA,NA,NA,7,8,92,g,1,2.581792196,sub-66791828
NA,NA,NA,NA,NA,NA,NA,blau,blue,b,1,NA,NA,NA,7,9,93,b,1,0.585955542,sub-66791828
NA,NA,NA,NA,NA,NA,NA,gelb,red,r,0,NA,NA,NA,7,10,94,r,1,1.036475101,sub-66791828
NA,NA,NA,NA,NA,NA,NA,blau,red,r,0,NA,NA,NA,7,11,95,r,1,1.010052457,sub-66791828
NA,NA,NA,NA,NA,NA,NA,blau,blue,b,1,NA,NA,NA,8,0,96,b,1,0.94957476,sub-66791828
NA,NA,NA,NA,NA,NA,NA,gelb,red,r,0,NA,NA,NA,8,1,97,r,1,0.786112844,sub-66791828
NA,NA,NA,NA,NA,NA,NA,rot,red,r,1,NA,NA,NA,8,2,98,r,1,1.609504438,sub-66791828
NA,NA,NA,NA,NA,NA,NA,blau,blue,b,1,NA,NA,NA,8,3,99,b,1,0.610930625,sub-66791828
NA,NA,NA,NA,NA,NA,NA,gelb,blue,b,0,NA,NA,NA,8,4,100,b,1,0.652099232,sub-66791828
NA,NA,NA,NA,NA,NA,NA,rot,red,r,1,NA,NA,NA,8,5,101,r,1,1.656174305,sub-66791828
NA,NA,NA,NA,NA,NA,NA,gelb,yellow,g,1,NA,NA,NA,8,6,102,r,0,0.66820340600000006,sub-66791828
NA,NA,NA,NA,NA,NA,NA,blau,red,r,0,NA,NA,NA,8,7,103,r,1,1.797531126,sub-66791828
NA,NA,NA,NA,NA,NA,NA,gelb,yellow,g,1,NA,NA,NA,8,8,104,g,1,4.241379668,sub-66791828
NA,NA,NA,NA,NA,NA,NA,rot,blue,b,0,NA,NA,NA,8,9,105,b,1,0.893151887,sub-66791828
NA,NA,NA,NA,NA,NA,NA,rot,yellow,g,0,NA,NA,NA,8,10,106,g,1,2.114104902,sub-66791828
NA,NA,NA,NA,NA,NA,NA,blau,yellow,g,0,NA,NA,NA,8,11,107,g,1,1.527103366,sub-66791828
NA,NA,NA,NA,NA,NA,NA,gelb,blue,b,0,NA,NA,NA,9,0,108,b,1,0.698759249,sub-66791828
NA,NA,NA,NA,NA,NA,NA,gelb,yellow,g,1,NA,NA,NA,9,1,109,g,1,0.783253366,sub-66791828
NA,NA,NA,NA,NA,NA,NA,rot,red,r,1,NA,NA,NA,9,2,110,r,1,1.024166937,sub-66791828
NA,NA,NA,NA,NA,NA,NA,rot,yellow,g,0,NA,NA,NA,9,3,111,g,1,0.783413167,sub-66791828
NA,NA,NA,NA,NA,NA,NA,blau,yellow,g,0,NA,NA,NA,9,4,112,g,1,1.136057608,sub-66791828
NA,NA,NA,NA,NA,NA,NA,rot,blue,b,0,NA,NA,NA,9,5,113,b,1,1.148840164,sub-66791828
NA,NA,NA,NA,NA,NA,NA,gelb,red,r,0,NA,NA,NA,9,6,114,r,1,0.668469228,sub-66791828
NA,NA,NA,NA,NA,NA,NA,gelb,yellow,g,1,NA,NA,NA,9,7,115,b,0,0.811071533,sub-66791828
NA,NA,NA,NA,NA,NA,NA,blau,blue,b,1,NA,NA,NA,9,8,116,b,1,1.498085614,sub-66791828
NA,NA,NA,NA,NA,NA,NA,blau,red,r,0,NA,NA,NA,9,9,117,r,1,0.814014554,sub-66791828
NA,NA,NA,NA,NA,NA,NA,rot,red,r,1,NA,NA,NA,9,10,118,r,1,0.645870802,sub-66791828
NA,NA,NA,NA,NA,NA,NA,blau,blue,b,1,NA,NA,NA,9,11,119,b,1,0.600463807,sub-66791828
NA,NA,NA,NA,NA,NA,NA,NA,NA,NA,NA,NA,NA,NA,NA,NA,NA,NA,NA,NA,sub-66791828
