wordCTK,colorCTK,corrAnsCTK,congruentCTK,wordPractice,colorPractice,congruentPractice,word,color,corrAns,congruent,trials_practice.thisRepN,trials_practice.thisTrialN,trials_practice.thisN,trials_test.thisRepN,trials_test.thisTrialN,trials_test.thisN,keyResp_test_run.keys,keyResp_test_run.corr,keyResp_test_run.rt,participant
NA,NA,NA,NA,NA,NA,NA,NA,NA,NA,NA,NA,NA,NA,NA,NA,NA,NA,NA,NA,sub-29508811
NA,NA,NA,NA,NA,NA,NA,NA,NA,NA,NA,NA,NA,NA,NA,NA,NA,NA,NA,NA,sub-29508811
test,yellow,g,1,NA,NA,NA,NA,NA,NA,NA,NA,NA,NA,NA,NA,NA,NA,NA,NA,sub-29508811
test,red,r,1,NA,NA,NA,NA,NA,NA,NA,NA,NA,NA,NA,NA,NA,NA,NA,NA,sub-29508811
test,blue,b,1,NA,NA,NA,NA,NA,NA,NA,NA,NA,NA,NA,NA,NA,NA,NA,NA,sub-29508811
test,blue,b,1,NA,NA,NA,NA,NA,NA,NA,NA,NA,NA,NA,NA,NA,NA,NA,NA,sub-29508811
test,red,r,1,NA,NA,NA,NA,NA,NA,NA,NA,NA,NA,NA,NA,NA,NA,NA,NA,sub-29508811
test,yellow,g,1,NA,NA,NA,NA,NA,NA,NA,NA,NA,NA,NA,NA,NA,NA,NA,NA,sub-29508811
test,red,r,1,NA,NA,NA,NA,NA,NA,NA,NA,NA,NA,NA,NA,NA,NA,NA,NA,sub-29508811
test,blue,b,1,NA,NA,NA,NA,NA,NA,NA,NA,NA,NA,NA,NA,NA,NA,NA,NA,sub-29508811
test,yellow,g,1,NA,NA,NA,NA,NA,NA,NA,NA,NA,NA,NA,NA,NA,NA,NA,NA,sub-29508811
test,yellow,g,1,NA,NA,NA,NA,NA,NA,NA,NA,NA,NA,NA,NA,NA,NA,NA,NA,sub-29508811
test,blue,b,1,NA,NA,NA,NA,NA,NA,NA,NA,NA,NA,NA,NA,NA,NA,NA,NA,sub-29508811
test,red,r,1,NA,NA,NA,NA,NA,NA,NA,NA,NA,NA,NA,NA,NA,NA,NA,NA,sub-29508811
NA,NA,NA,NA,NA,NA,NA,NA,NA,NA,NA,NA,NA,NA,NA,NA,NA,NA,NA,NA,sub-29508811
NA,NA,NA,NA,gelb,red,0,NA,NA,NA,NA,0,0,0,NA,NA,NA,NA,NA,NA,sub-29508811
NA,NA,NA,NA,rot,yellow,0,NA,NA,NA,NA,0,1,1,NA,NA,NA,NA,NA,NA,sub-29508811
NA,NA,NA,NA,gelb,yellow,1,NA,NA,NA,NA,0,2,2,NA,NA,NA,NA,NA,NA,sub-29508811
NA,NA,NA,NA,gelb,yellow,1,NA,NA,NA,NA,0,3,3,NA,NA,NA,NA,NA,NA,sub-29508811
NA,NA,NA,NA,gelb,blue,0,NA,NA,NA,NA,0,4,4,NA,NA,NA,NA,NA,NA,sub-29508811
NA,NA,NA,NA,blau,blue,1,NA,NA,NA,NA,0,5,5,NA,NA,NA,NA,NA,NA,sub-29508811
NA,NA,NA,NA,blau,yellow,0,NA,NA,NA,NA,0,6,6,NA,NA,NA,NA,NA,NA,sub-29508811
NA,NA,NA,NA,rot,red,1,NA,NA,NA,NA,0,7,7,NA,NA,NA,NA,NA,NA,sub-29508811
NA,NA,NA,NA,rot,red,1,NA,NA,NA,NA,0,8,8,NA,NA,NA,NA,NA,NA,sub-29508811
NA,NA,NA,NA,rot,blue,0,NA,NA,NA,NA,0,9,9,NA,NA,NA,NA,NA,NA,sub-29508811
NA,NA,NA,NA,blau,blue,1,NA,NA,NA,NA,0,10,10,NA,NA,NA,NA,NA,NA,sub-29508811
NA,NA,NA,NA,blau,red,0,NA,NA,NA,NA,0,11,11,NA,NA,NA,NA,NA,NA,sub-29508811
NA,NA,NA,NA,blau,blue,1,NA,NA,NA,NA,1,0,12,NA,NA,NA,NA,NA,NA,sub-29508811
NA,NA,NA,NA,gelb,yellow,1,NA,NA,NA,NA,1,1,13,NA,NA,NA,NA,NA,NA,sub-29508811
NA,NA,NA,NA,rot,red,1,NA,NA,NA,NA,1,2,14,NA,NA,NA,NA,NA,NA,sub-29508811
NA,NA,NA,NA,gelb,blue,0,NA,NA,NA,NA,1,3,15,NA,NA,NA,NA,NA,NA,sub-29508811
NA,NA,NA,NA,gelb,yellow,1,NA,NA,NA,NA,1,4,16,NA,NA,NA,NA,NA,NA,sub-29508811
NA,NA,NA,NA,blau,red,0,NA,NA,NA,NA,1,5,17,NA,NA,NA,NA,NA,NA,sub-29508811
NA,NA,NA,NA,gelb,red,0,NA,NA,NA,NA,1,6,18,NA,NA,NA,NA,NA,NA,sub-29508811
NA,NA,NA,NA,rot,blue,0,NA,NA,NA,NA,1,7,19,NA,NA,NA,NA,NA,NA,sub-29508811
NA,NA,NA,NA,rot,red,1,NA,NA,NA,NA,1,8,20,NA,NA,NA,NA,NA,NA,sub-29508811
NA,NA,NA,NA,blau,blue,1,NA,NA,NA,NA,1,9,21,NA,NA,NA,NA,NA,NA,sub-29508811
NA,NA,NA,NA,blau,yellow,0,NA,NA,NA,NA,1,10,22,NA,NA,NA,NA,NA,NA,sub-29508811
NA,NA,NA,NA,rot,yellow,0,NA,NA,NA,NA,1,11,23,NA,NA,NA,NA,NA,NA,sub-29508811
NA,NA,NA,NA,NA,NA,NA,NA,NA,NA,NA,NA,NA,NA,NA,NA,NA,NA,NA,NA,sub-29508811
NA,NA,NA,NA,NA,NA,NA,rot,red,r,1,NA,NA,NA,0,0,0,r,1,0.7454376190144103,sub-29508811
NA,NA,NA,NA,NA,NA,NA,gelb,yellow,g,1,NA,NA,NA,0,1,1,g,1,0.7337146420031786,sub-29508811
NA,NA,NA,NA,NA,NA,NA,blau,red,r,0,NA,NA,NA,0,2,2,r,1,0.9916334199951962,sub-29508811
NA,NA,NA,NA,NA,NA,NA,blau,blue,b,1,NA,NA,NA,0,3,3,b,1,1.3041488410090096,sub-29508811
NA,NA,NA,NA,NA,NA,NA,gelb,blue,b,0,NA,NA,NA,0,4,4,b,1,1.2338159949867986,sub-29508811
NA,NA,NA,NA,NA,NA,NA,gelb,red,r,0,NA,NA,NA,0,5,5,r,1,1.092751201998908,sub-29508811
NA,NA,NA,NA,NA,NA,NA,blau,yellow,g,0,NA,NA,NA,0,6,6,g,1,0.8737506859761197,sub-29508811
NA,NA,NA,NA,NA,NA,NA,gelb,yellow,g,1,NA,NA,NA,0,7,7,g,1,1.007605202990817,sub-29508811
NA,NA,NA,NA,NA,NA,NA,blau,blue,b,1,NA,NA,NA,0,8,8,b,1,0.9943388379761018,sub-29508811
NA,NA,NA,NA,NA,NA,NA,rot,red,r,1,NA,NA,NA,0,9,9,r,1,1.111759715975495,sub-29508811
NA,NA,NA,NA,NA,NA,NA,rot,blue,b,0,NA,NA,NA,0,10,10,b,1,0.8458005449792836,sub-29508811
NA,NA,NA,NA,NA,NA,NA,rot,yellow,g,0,NA,NA,NA,0,11,11,g,1,1.0532403090037403,sub-29508811
NA,NA,NA,NA,NA,NA,NA,rot,blue,b,0,NA,NA,NA,1,0,12,b,1,0.7157647899875883,sub-29508811
NA,NA,NA,NA,NA,NA,NA,rot,red,r,1,NA,NA,NA,1,1,13,r,1,0.7204468310228549,sub-29508811
NA,NA,NA,NA,NA,NA,NA,gelb,blue,b,0,NA,NA,NA,1,2,14,b,1,0.9544417140132282,sub-29508811
NA,NA,NA,NA,NA,NA,NA,gelb,yellow,g,1,NA,NA,NA,1,3,15,g,1,1.3801307219837329,sub-29508811
NA,NA,NA,NA,NA,NA,NA,blau,blue,b,1,NA,NA,NA,1,4,16,b,1,0.6450780160084832,sub-29508811
NA,NA,NA,NA,NA,NA,NA,blau,blue,b,1,NA,NA,NA,1,5,17,b,1,1.1734697030042298,sub-29508811
NA,NA,NA,NA,NA,NA,NA,gelb,red,r,0,NA,NA,NA,1,6,18,r,1,1.0657341170008294,sub-29508811
NA,NA,NA,NA,NA,NA,NA,gelb,yellow,g,1,NA,NA,NA,1,7,19,g,1,0.8369379320065491,sub-29508811
NA,NA,NA,NA,NA,NA,NA,rot,red,r,1,NA,NA,NA,1,8,20,r,1,0.755274211987853,sub-29508811
NA,NA,NA,NA,NA,NA,NA,rot,yellow,g,0,NA,NA,NA,1,9,21,g,1,1.3319884889933746,sub-29508811
NA,NA,NA,NA,NA,NA,NA,blau,yellow,g,0,NA,NA,NA,1,10,22,g,1,0.9012906400021166,sub-29508811
NA,NA,NA,NA,NA,NA,NA,blau,red,r,0,NA,NA,NA,1,11,23,r,1,0.8501726530084852,sub-29508811
NA,NA,NA,NA,NA,NA,NA,gelb,yellow,g,1,NA,NA,NA,2,0,24,g,1,0.6709159199963324,sub-29508811
NA,NA,NA,NA,NA,NA,NA,rot,yellow,g,0,NA,NA,NA,2,1,25,g,1,1.1994070220098365,sub-29508811
NA,NA,NA,NA,NA,NA,NA,rot,red,r,1,NA,NA,NA,2,2,26,r,1,0.7486756209982559,sub-29508811
NA,NA,NA,NA,NA,NA,NA,rot,blue,b,0,NA,NA,NA,2,3,27,b,1,0.8018609489954542,sub-29508811
NA,NA,NA,NA,NA,NA,NA,blau,yellow,g,0,NA,NA,NA,2,4,28,g,1,1.7275867729913443,sub-29508811
NA,NA,NA,NA,NA,NA,NA,blau,red,r,0,NA,NA,NA,2,5,29,r,1,0.7492711860104464,sub-29508811
NA,NA,NA,NA,NA,NA,NA,blau,blue,b,1,NA,NA,NA,2,6,30,b,1,0.8685612819972448,sub-29508811
NA,NA,NA,NA,NA,NA,NA,gelb,blue,b,0,NA,NA,NA,2,7,31,b,1,0.7693603300140239,sub-29508811
NA,NA,NA,NA,NA,NA,NA,blau,blue,b,1,NA,NA,NA,2,8,32,b,1,0.6434957110031974,sub-29508811
NA,NA,NA,NA,NA,NA,NA,rot,red,r,1,NA,NA,NA,2,9,33,r,1,0.9337615789845586,sub-29508811
NA,NA,NA,NA,NA,NA,NA,gelb,yellow,g,1,NA,NA,NA,2,10,34,g,1,1.335215105995303,sub-29508811
NA,NA,NA,NA,NA,NA,NA,gelb,red,r,0,NA,NA,NA,2,11,35,r,1,1.367853595991619,sub-29508811
NA,NA,NA,NA,NA,NA,NA,blau,red,r,0,NA,NA,NA,3,0,36,r,1,0.9095730449771507,sub-29508811
NA,NA,NA,NA,NA,NA,NA,rot,yellow,g,0,NA,NA,NA,3,1,37,g,1,1.1265463400050066,sub-29508811
NA,NA,NA,NA,NA,NA,NA,gelb,red,r,0,NA,NA,NA,3,2,38,r,1,1.1922066319966689,sub-29508811
NA,NA,NA,NA,NA,NA,NA,gelb,yellow,g,1,NA,NA,NA,3,3,39,g,1,0.9837450660124888,sub-29508811
NA,NA,NA,NA,NA,NA,NA,rot,red,r,1,NA,NA,NA,3,4,40,r,1,0.7062512050033547,sub-29508811
NA,NA,NA,NA,NA,NA,NA,blau,yellow,g,0,NA,NA,NA,3,5,41,g,1,1.130119527981151,sub-29508811
NA,NA,NA,NA,NA,NA,NA,gelb,yellow,g,1,NA,NA,NA,3,6,42,g,1,0.710322778992122,sub-29508811
NA,NA,NA,NA,NA,NA,NA,rot,blue,b,0,NA,NA,NA,3,7,43,b,1,0.8301239440042991,sub-29508811
NA,NA,NA,NA,NA,NA,NA,gelb,blue,b,0,NA,NA,NA,3,8,44,b,1,0.8304548409942072,sub-29508811
NA,NA,NA,NA,NA,NA,NA,blau,blue,b,1,NA,NA,NA,3,9,45,b,1,0.6792802819982171,sub-29508811
NA,NA,NA,NA,NA,NA,NA,blau,blue,b,1,NA,NA,NA,3,10,46,b,1,0.6347857720102184,sub-29508811
NA,NA,NA,NA,NA,NA,NA,rot,red,r,1,NA,NA,NA,3,11,47,r,1,0.7597139189892914,sub-29508811
NA,NA,NA,NA,NA,NA,NA,blau,red,r,0,NA,NA,NA,4,0,48,r,1,1.2260752290021628,sub-29508811
NA,NA,NA,NA,NA,NA,NA,gelb,red,r,0,NA,NA,NA,4,1,49,r,1,0.8363603320030961,sub-29508811
NA,NA,NA,NA,NA,NA,NA,rot,red,r,1,NA,NA,NA,4,2,50,r,1,0.6448753899894655,sub-29508811
NA,NA,NA,NA,NA,NA,NA,rot,blue,b,0,NA,NA,NA,4,3,51,b,1,1.0143401109962724,sub-29508811
NA,NA,NA,NA,NA,NA,NA,rot,red,r,1,NA,NA,NA,4,4,52,r,1,0.8143844529986382,sub-29508811
NA,NA,NA,NA,NA,NA,NA,rot,yellow,g,0,NA,NA,NA,4,5,53,g,1,0.9998043079976924,sub-29508811
NA,NA,NA,NA,NA,NA,NA,blau,yellow,g,0,NA,NA,NA,4,6,54,g,1,0.6770986889896449,sub-29508811
NA,NA,NA,NA,NA,NA,NA,gelb,blue,b,0,NA,NA,NA,4,7,55,b,1,0.7237476790032815,sub-29508811
NA,NA,NA,NA,NA,NA,NA,gelb,yellow,g,1,NA,NA,NA,4,8,56,g,1,1.2596204120200127,sub-29508811
NA,NA,NA,NA,NA,NA,NA,gelb,yellow,g,1,NA,NA,NA,4,9,57,g,1,0.6823201340157539,sub-29508811
NA,NA,NA,NA,NA,NA,NA,blau,blue,b,1,NA,NA,NA,4,10,58,b,1,0.7000824740098324,sub-29508811
NA,NA,NA,NA,NA,NA,NA,blau,blue,b,1,NA,NA,NA,4,11,59,b,1,0.5883638729865197,sub-29508811
NA,NA,NA,NA,NA,NA,NA,gelb,yellow,g,1,NA,NA,NA,5,0,60,g,1,0.7619161340116989,sub-29508811
NA,NA,NA,NA,NA,NA,NA,blau,blue,b,1,NA,NA,NA,5,1,61,b,1,0.8001601730065886,sub-29508811
NA,NA,NA,NA,NA,NA,NA,rot,red,r,1,NA,NA,NA,5,2,62,r,1,0.6792755810020026,sub-29508811
NA,NA,NA,NA,NA,NA,NA,gelb,red,r,0,NA,NA,NA,5,3,63,r,1,1.2521642190113198,sub-29508811
NA,NA,NA,NA,NA,NA,NA,rot,blue,b,0,NA,NA,NA,5,4,64,b,1,0.88065198098775,sub-29508811
NA,NA,NA,NA,NA,NA,NA,rot,yellow,g,0,NA,NA,NA,5,5,65,g,1,0.9030619819823188,sub-29508811
NA,NA,NA,NA,NA,NA,NA,blau,blue,b,1,NA,NA,NA,5,6,66,b,1,0.9476731440227012,sub-29508811
NA,NA,NA,NA,NA,NA,NA,rot,red,r,1,NA,NA,NA,5,7,67,r,1,1.0384202139975969,sub-29508811
NA,NA,NA,NA,NA,NA,NA,gelb,blue,b,0,NA,NA,NA,5,8,68,b,1,0.6493172490154393,sub-29508811
NA,NA,NA,NA,NA,NA,NA,blau,yellow,g,0,NA,NA,NA,5,9,69,g,1,0.8313083490065765,sub-29508811
NA,NA,NA,NA,NA,NA,NA,gelb,yellow,g,1,NA,NA,NA,5,10,70,g,1,0.6365410840080585,sub-29508811
NA,NA,NA,NA,NA,NA,NA,blau,red,r,0,NA,NA,NA,5,11,71,r,1,0.9707496409828308,sub-29508811
NA,NA,NA,NA,NA,NA,NA,blau,blue,b,1,NA,NA,NA,6,0,72,b,1,0.6341561539738905,sub-29508811
NA,NA,NA,NA,NA,NA,NA,blau,yellow,g,0,NA,NA,NA,6,1,73,g,1,0.6122912239807192,sub-29508811
NA,NA,NA,NA,NA,NA,NA,gelb,blue,b,0,NA,NA,NA,6,2,74,b,1,0.6335606729844585,sub-29508811
NA,NA,NA,NA,NA,NA,NA,rot,red,r,1,NA,NA,NA,6,3,75,r,1,0.725763510010438,sub-29508811
NA,NA,NA,NA,NA,NA,NA,blau,blue,b,1,NA,NA,NA,6,4,76,b,1,0.751315784000326,sub-29508811
NA,NA,NA,NA,NA,NA,NA,gelb,yellow,g,1,NA,NA,NA,6,5,77,g,1,0.7835341290046927,sub-29508811
NA,NA,NA,NA,NA,NA,NA,blau,red,r,0,NA,NA,NA,6,6,78,r,1,0.8823519079887774,sub-29508811
NA,NA,NA,NA,NA,NA,NA,rot,yellow,g,0,NA,NA,NA,6,7,79,g,1,0.8638522340042982,sub-29508811
NA,NA,NA,NA,NA,NA,NA,gelb,red,r,0,NA,NA,NA,6,8,80,r,1,0.9559328890172764,sub-29508811
NA,NA,NA,NA,NA,NA,NA,rot,red,r,1,NA,NA,NA,6,9,81,r,1,0.9187931249907706,sub-29508811
NA,NA,NA,NA,NA,NA,NA,rot,blue,b,0,NA,NA,NA,6,10,82,b,1,1.237212611013092,sub-29508811
NA,NA,NA,NA,NA,NA,NA,gelb,yellow,g,1,NA,NA,NA,6,11,83,g,1,0.41099378501530737,sub-29508811
NA,NA,NA,NA,NA,NA,NA,rot,red,r,1,NA,NA,NA,7,0,84,r,1,0.6628207549802028,sub-29508811
NA,NA,NA,NA,NA,NA,NA,blau,yellow,g,0,NA,NA,NA,7,1,85,g,1,0.9657949070096948,sub-29508811
NA,NA,NA,NA,NA,NA,NA,gelb,red,r,0,NA,NA,NA,7,2,86,r,1,0.9594150990014896,sub-29508811
NA,NA,NA,NA,NA,NA,NA,rot,red,r,1,NA,NA,NA,7,3,87,r,1,0.6536677739932202,sub-29508811
NA,NA,NA,NA,NA,NA,NA,blau,blue,b,1,NA,NA,NA,7,4,88,b,1,0.6689339189906605,sub-29508811
NA,NA,NA,NA,NA,NA,NA,gelb,yellow,g,1,NA,NA,NA,7,5,89,g,1,0.7039006990089547,sub-29508811
NA,NA,NA,NA,NA,NA,NA,gelb,yellow,g,1,NA,NA,NA,7,6,90,g,1,1.2509650200081524,sub-29508811
NA,NA,NA,NA,NA,NA,NA,gelb,blue,b,0,NA,NA,NA,7,7,91,b,1,1.2624809989938512,sub-29508811
NA,NA,NA,NA,NA,NA,NA,rot,blue,b,0,NA,NA,NA,7,8,92,b,1,1.029991240997333,sub-29508811
NA,NA,NA,NA,NA,NA,NA,rot,yellow,g,0,NA,NA,NA,7,9,93,g,1,0.9048863250063732,sub-29508811
NA,NA,NA,NA,NA,NA,NA,blau,blue,b,1,NA,NA,NA,7,10,94,b,1,0.8869518910069019,sub-29508811
NA,NA,NA,NA,NA,NA,NA,blau,red,r,0,NA,NA,NA,7,11,95,r,1,0.5971630800049752,sub-29508811
NA,NA,NA,NA,NA,NA,NA,gelb,yellow,g,1,NA,NA,NA,8,0,96,g,1,0.8447912059782539,sub-29508811
NA,NA,NA,NA,NA,NA,NA,gelb,yellow,g,1,NA,NA,NA,8,1,97,g,1,0.7464595999917947,sub-29508811
NA,NA,NA,NA,NA,NA,NA,blau,yellow,g,0,NA,NA,NA,8,2,98,g,1,0.9074893500073812,sub-29508811
NA,NA,NA,NA,NA,NA,NA,rot,yellow,g,0,NA,NA,NA,8,3,99,g,1,0.818089449981926,sub-29508811
NA,NA,NA,NA,NA,NA,NA,blau,red,r,0,NA,NA,NA,8,4,100,r,1,0.7416837569908239,sub-29508811
NA,NA,NA,NA,NA,NA,NA,rot,red,r,1,NA,NA,NA,8,5,101,r,1,0.7332804929756094,sub-29508811
NA,NA,NA,NA,NA,NA,NA,gelb,red,r,0,NA,NA,NA,8,6,102,r,1,0.8317222380137537,sub-29508811
NA,NA,NA,NA,NA,NA,NA,rot,red,r,1,NA,NA,NA,8,7,103,r,1,0.9561028979951516,sub-29508811
NA,NA,NA,NA,NA,NA,NA,rot,blue,b,0,NA,NA,NA,8,8,104,b,1,0.9690068560012152,sub-29508811
NA,NA,NA,NA,NA,NA,NA,blau,blue,b,1,NA,NA,NA,8,9,105,b,1,0.8146297529747244,sub-29508811
NA,NA,NA,NA,NA,NA,NA,blau,blue,b,1,NA,NA,NA,8,10,106,b,1,0.6038618859893177,sub-29508811
NA,NA,NA,NA,NA,NA,NA,gelb,blue,b,0,NA,NA,NA,8,11,107,b,1,0.7903782789944671,sub-29508811
NA,NA,NA,NA,NA,NA,NA,blau,blue,b,1,NA,NA,NA,9,0,108,b,1,0.7319708690047264,sub-29508811
NA,NA,NA,NA,NA,NA,NA,gelb,yellow,g,1,NA,NA,NA,9,1,109,g,1,0.6749029929924291,sub-29508811
NA,NA,NA,NA,NA,NA,NA,rot,red,r,1,NA,NA,NA,9,2,110,r,1,0.6799879329919349,sub-29508811
NA,NA,NA,NA,NA,NA,NA,blau,blue,b,1,NA,NA,NA,9,3,111,b,1,0.6895813810115214,sub-29508811
NA,NA,NA,NA,NA,NA,NA,rot,yellow,g,0,NA,NA,NA,9,4,112,r,0,0.7427263479912654,sub-29508811
NA,NA,NA,NA,NA,NA,NA,gelb,yellow,g,1,NA,NA,NA,9,5,113,g,1,0.7325879500131123,sub-29508811
NA,NA,NA,NA,NA,NA,NA,gelb,red,r,0,NA,NA,NA,9,6,114,r,1,1.1249500350095332,sub-29508811
NA,NA,NA,NA,NA,NA,NA,blau,yellow,g,0,NA,NA,NA,9,7,115,g,1,1.0742393399996215,sub-29508811
NA,NA,NA,NA,NA,NA,NA,gelb,blue,b,0,NA,NA,NA,9,8,116,b,1,1.2321244080085307,sub-29508811
NA,NA,NA,NA,NA,NA,NA,rot,blue,b,0,NA,NA,NA,9,9,117,b,1,0.6601704930071719,sub-29508811
NA,NA,NA,NA,NA,NA,NA,blau,red,r,0,NA,NA,NA,9,10,118,r,1,1.0387482569785789,sub-29508811
NA,NA,NA,NA,NA,NA,NA,rot,red,r,1,NA,NA,NA,9,11,119,r,1,1.1036575319885742,sub-29508811
NA,NA,NA,NA,NA,NA,NA,NA,NA,NA,NA,NA,NA,NA,NA,NA,NA,NA,NA,NA,sub-29508811
