wordCTK,colorCTK,corrAnsCTK,congruentCTK,wordPractice,colorPractice,congruentPractice,word,color,corrAns,congruent,trials_practice.thisRepN,trials_practice.thisTrialN,trials_practice.thisN,trials_test.thisRepN,trials_test.thisTrialN,trials_test.thisN,keyResp_test_run.keys,keyResp_test_run.corr,keyResp_test_run.rt,participant
NA,NA,NA,NA,NA,NA,NA,NA,NA,NA,NA,NA,NA,NA,NA,NA,NA,NA,NA,NA,sub-58076237
NA,NA,NA,NA,NA,NA,NA,NA,NA,NA,NA,NA,NA,NA,NA,NA,NA,NA,NA,NA,sub-58076237
test,yellow,g,1,NA,NA,NA,NA,NA,NA,NA,NA,NA,NA,NA,NA,NA,NA,NA,NA,sub-58076237
test,blue,b,1,NA,NA,NA,NA,NA,NA,NA,NA,NA,NA,NA,NA,NA,NA,NA,NA,sub-58076237
test,red,r,1,NA,NA,NA,NA,NA,NA,NA,NA,NA,NA,NA,NA,NA,NA,NA,NA,sub-58076237
test,blue,b,1,NA,NA,NA,NA,NA,NA,NA,NA,NA,NA,NA,NA,NA,NA,NA,NA,sub-58076237
test,yellow,g,1,NA,NA,NA,NA,NA,NA,NA,NA,NA,NA,NA,NA,NA,NA,NA,NA,sub-58076237
test,red,r,1,NA,NA,NA,NA,NA,NA,NA,NA,NA,NA,NA,NA,NA,NA,NA,NA,sub-58076237
test,yellow,g,1,NA,NA,NA,NA,NA,NA,NA,NA,NA,NA,NA,NA,NA,NA,NA,NA,sub-58076237
test,red,r,1,NA,NA,NA,NA,NA,NA,NA,NA,NA,NA,NA,NA,NA,NA,NA,NA,sub-58076237
test,blue,b,1,NA,NA,NA,NA,NA,NA,NA,NA,NA,NA,NA,NA,NA,NA,NA,NA,sub-58076237
test,blue,b,1,NA,NA,NA,NA,NA,NA,NA,NA,NA,NA,NA,NA,NA,NA,NA,NA,sub-58076237
test,red,r,1,NA,NA,NA,NA,NA,NA,NA,NA,NA,NA,NA,NA,NA,NA,NA,NA,sub-58076237
test,yellow,g,1,NA,NA,NA,NA,NA,NA,NA,NA,NA,NA,NA,NA,NA,NA,NA,NA,sub-58076237
NA,NA,NA,NA,NA,NA,NA,NA,NA,NA,NA,NA,NA,NA,NA,NA,NA,NA,NA,NA,sub-58076237
NA,NA,NA,NA,rot,yellow,0,NA,NA,NA,NA,0,0,0,NA,NA,NA,NA,NA,NA,sub-58076237
NA,NA,NA,NA,rot,red,1,NA,NA,NA,NA,0,1,1,NA,NA,NA,NA,NA,NA,sub-58076237
NA,NA,NA,NA,rot,blue,0,NA,NA,NA,NA,0,2,2,NA,NA,NA,NA,NA,NA,sub-58076237
NA,NA,NA,NA,blau,yellow,0,NA,NA,NA,NA,0,3,3,NA,NA,NA,NA,NA,NA,sub-58076237
NA,NA,NA,NA,blau,blue,1,NA,NA,NA,NA,0,4,4,NA,NA,NA,NA,NA,NA,sub-58076237
NA,NA,NA,NA,blau,red,0,NA,NA,NA,NA,0,5,5,NA,NA,NA,NA,NA,NA,sub-58076237
NA,NA,NA,NA,gelb,yellow,1,NA,NA,NA,NA,0,6,6,NA,NA,NA,NA,NA,NA,sub-58076237
NA,NA,NA,NA,blau,blue,1,NA,NA,NA,NA,0,7,7,NA,NA,NA,NA,NA,NA,sub-58076237
NA,NA,NA,NA,gelb,red,0,NA,NA,NA,NA,0,8,8,NA,NA,NA,NA,NA,NA,sub-58076237
NA,NA,NA,NA,gelb,blue,0,NA,NA,NA,NA,0,9,9,NA,NA,NA,NA,NA,NA,sub-58076237
NA,NA,NA,NA,rot,red,1,NA,NA,NA,NA,0,10,10,NA,NA,NA,NA,NA,NA,sub-58076237
NA,NA,NA,NA,gelb,yellow,1,NA,NA,NA,NA,0,11,11,NA,NA,NA,NA,NA,NA,sub-58076237
NA,NA,NA,NA,gelb,yellow,1,NA,NA,NA,NA,1,0,12,NA,NA,NA,NA,NA,NA,sub-58076237
NA,NA,NA,NA,gelb,red,0,NA,NA,NA,NA,1,1,13,NA,NA,NA,NA,NA,NA,sub-58076237
NA,NA,NA,NA,rot,yellow,0,NA,NA,NA,NA,1,2,14,NA,NA,NA,NA,NA,NA,sub-58076237
NA,NA,NA,NA,gelb,blue,0,NA,NA,NA,NA,1,3,15,NA,NA,NA,NA,NA,NA,sub-58076237
NA,NA,NA,NA,rot,blue,0,NA,NA,NA,NA,1,4,16,NA,NA,NA,NA,NA,NA,sub-58076237
NA,NA,NA,NA,rot,red,1,NA,NA,NA,NA,1,5,17,NA,NA,NA,NA,NA,NA,sub-58076237
NA,NA,NA,NA,gelb,yellow,1,NA,NA,NA,NA,1,6,18,NA,NA,NA,NA,NA,NA,sub-58076237
NA,NA,NA,NA,blau,blue,1,NA,NA,NA,NA,1,7,19,NA,NA,NA,NA,NA,NA,sub-58076237
NA,NA,NA,NA,blau,red,0,NA,NA,NA,NA,1,8,20,NA,NA,NA,NA,NA,NA,sub-58076237
NA,NA,NA,NA,blau,yellow,0,NA,NA,NA,NA,1,9,21,NA,NA,NA,NA,NA,NA,sub-58076237
NA,NA,NA,NA,blau,blue,1,NA,NA,NA,NA,1,10,22,NA,NA,NA,NA,NA,NA,sub-58076237
NA,NA,NA,NA,rot,red,1,NA,NA,NA,NA,1,11,23,NA,NA,NA,NA,NA,NA,sub-58076237
NA,NA,NA,NA,NA,NA,NA,NA,NA,NA,NA,NA,NA,NA,NA,NA,NA,NA,NA,NA,sub-58076237
NA,NA,NA,NA,NA,NA,NA,gelb,yellow,g,1,NA,NA,NA,0,0,0,g,1,0.8209762,sub-58076237
NA,NA,NA,NA,NA,NA,NA,rot,red,r,1,NA,NA,NA,0,1,1,r,1,0.672752,sub-58076237
NA,NA,NA,NA,NA,NA,NA,gelb,red,r,0,NA,NA,NA,0,2,2,r,1,0.7265302,sub-58076237
NA,NA,NA,NA,NA,NA,NA,blau,blue,b,1,NA,NA,NA,0,3,3,b,1,0.5428221,sub-58076237
NA,NA,NA,NA,NA,NA,NA,blau,red,r,0,NA,NA,NA,0,4,4,r,1,0.691039,sub-58076237
NA,NA,NA,NA,NA,NA,NA,gelb,blue,b,0,NA,NA,NA,0,5,5,b,1,1.1744974,sub-58076237
NA,NA,NA,NA,NA,NA,NA,rot,yellow,g,0,NA,NA,NA,0,6,6,g,1,0.6817172,sub-58076237
NA,NA,NA,NA,NA,NA,NA,gelb,yellow,g,1,NA,NA,NA,0,7,7,g,1,0.5910178,sub-58076237
NA,NA,NA,NA,NA,NA,NA,rot,red,r,1,NA,NA,NA,0,8,8,r,1,0.6246383,sub-58076237
NA,NA,NA,NA,NA,NA,NA,blau,yellow,g,0,NA,NA,NA,0,9,9,g,1,0.5855132,sub-58076237
NA,NA,NA,NA,NA,NA,NA,blau,blue,b,1,NA,NA,NA,0,10,10,b,1,0.479474,sub-58076237
NA,NA,NA,NA,NA,NA,NA,rot,blue,b,0,NA,NA,NA,0,11,11,b,1,0.5416101,sub-58076237
NA,NA,NA,NA,NA,NA,NA,gelb,blue,b,0,NA,NA,NA,1,0,12,b,1,0.5430592,sub-58076237
NA,NA,NA,NA,NA,NA,NA,blau,yellow,g,0,NA,NA,NA,1,1,13,g,1,0.6787177,sub-58076237
NA,NA,NA,NA,NA,NA,NA,blau,blue,b,1,NA,NA,NA,1,2,14,b,1,0.6205516,sub-58076237
NA,NA,NA,NA,NA,NA,NA,rot,blue,b,0,NA,NA,NA,1,3,15,b,1,0.7913517,sub-58076237
NA,NA,NA,NA,NA,NA,NA,gelb,yellow,g,1,NA,NA,NA,1,4,16,g,1,0.6672354,sub-58076237
NA,NA,NA,NA,NA,NA,NA,rot,yellow,g,0,NA,NA,NA,1,5,17,g,1,0.594253,sub-58076237
NA,NA,NA,NA,NA,NA,NA,gelb,red,r,0,NA,NA,NA,1,6,18,r,1,0.6879672,sub-58076237
NA,NA,NA,NA,NA,NA,NA,blau,blue,b,1,NA,NA,NA,1,7,19,b,1,0.48773,sub-58076237
NA,NA,NA,NA,NA,NA,NA,rot,red,r,1,NA,NA,NA,1,8,20,r,1,0.8107125,sub-58076237
NA,NA,NA,NA,NA,NA,NA,rot,red,r,1,NA,NA,NA,1,9,21,r,1,0.5692432,sub-58076237
NA,NA,NA,NA,NA,NA,NA,blau,red,r,0,NA,NA,NA,1,10,22,r,1,0.8504405,sub-58076237
NA,NA,NA,NA,NA,NA,NA,gelb,yellow,g,1,NA,NA,NA,1,11,23,g,1,0.7688712,sub-58076237
NA,NA,NA,NA,NA,NA,NA,blau,red,r,0,NA,NA,NA,2,0,24,r,1,0.8103518,sub-58076237
NA,NA,NA,NA,NA,NA,NA,blau,blue,b,1,NA,NA,NA,2,1,25,b,1,0.4147557,sub-58076237
NA,NA,NA,NA,NA,NA,NA,rot,red,r,1,NA,NA,NA,2,2,26,r,1,0.5446228,sub-58076237
NA,NA,NA,NA,NA,NA,NA,rot,red,r,1,NA,NA,NA,2,3,27,r,1,0.5172648,sub-58076237
NA,NA,NA,NA,NA,NA,NA,rot,yellow,g,0,NA,NA,NA,2,4,28,g,1,0.4431746,sub-58076237
NA,NA,NA,NA,NA,NA,NA,gelb,red,r,0,NA,NA,NA,2,5,29,r,1,0.8980505,sub-58076237
NA,NA,NA,NA,NA,NA,NA,blau,blue,b,1,NA,NA,NA,2,6,30,b,1,0.5304248,sub-58076237
NA,NA,NA,NA,NA,NA,NA,gelb,yellow,g,1,NA,NA,NA,2,7,31,g,1,0.6003798,sub-58076237
NA,NA,NA,NA,NA,NA,NA,gelb,blue,b,0,NA,NA,NA,2,8,32,b,1,0.5069469,sub-58076237
NA,NA,NA,NA,NA,NA,NA,gelb,yellow,g,1,NA,NA,NA,2,9,33,g,1,0.6933177,sub-58076237
NA,NA,NA,NA,NA,NA,NA,blau,yellow,g,0,NA,NA,NA,2,10,34,g,1,0.5927736,sub-58076237
NA,NA,NA,NA,NA,NA,NA,rot,blue,b,0,NA,NA,NA,2,11,35,b,1,0.4872956,sub-58076237
NA,NA,NA,NA,NA,NA,NA,gelb,red,r,0,NA,NA,NA,3,0,36,r,1,0.6528135,sub-58076237
NA,NA,NA,NA,NA,NA,NA,rot,red,r,1,NA,NA,NA,3,1,37,r,1,0.6643887,sub-58076237
NA,NA,NA,NA,NA,NA,NA,gelb,blue,b,0,NA,NA,NA,3,2,38,b,1,0.5527817,sub-58076237
NA,NA,NA,NA,NA,NA,NA,blau,blue,b,1,NA,NA,NA,3,3,39,b,1,0.6682005,sub-58076237
NA,NA,NA,NA,NA,NA,NA,blau,red,r,0,NA,NA,NA,3,4,40,r,1,0.56991,sub-58076237
NA,NA,NA,NA,NA,NA,NA,rot,yellow,g,0,NA,NA,NA,3,5,41,g,1,0.4253847,sub-58076237
NA,NA,NA,NA,NA,NA,NA,gelb,yellow,g,1,NA,NA,NA,3,6,42,g,1,0.5049606,sub-58076237
NA,NA,NA,NA,NA,NA,NA,rot,red,r,1,NA,NA,NA,3,7,43,r,1,0.424081,sub-58076237
NA,NA,NA,NA,NA,NA,NA,gelb,yellow,g,1,NA,NA,NA,3,8,44,g,1,0.4851452,sub-58076237
NA,NA,NA,NA,NA,NA,NA,rot,blue,b,0,NA,NA,NA,3,9,45,b,1,0.4009024,sub-58076237
NA,NA,NA,NA,NA,NA,NA,blau,blue,b,1,NA,NA,NA,3,10,46,b,1,0.4803551,sub-58076237
NA,NA,NA,NA,NA,NA,NA,blau,yellow,g,0,NA,NA,NA,3,11,47,g,1,0.6493697,sub-58076237
NA,NA,NA,NA,NA,NA,NA,blau,blue,b,1,NA,NA,NA,4,0,48,b,1,0.5767526,sub-58076237
NA,NA,NA,NA,NA,NA,NA,rot,yellow,g,0,NA,NA,NA,4,1,49,g,1,0.4406753,sub-58076237
NA,NA,NA,NA,NA,NA,NA,rot,red,r,1,NA,NA,NA,4,2,50,r,1,0.478149,sub-58076237
NA,NA,NA,NA,NA,NA,NA,blau,red,r,0,NA,NA,NA,4,3,51,r,1,0.4304358,sub-58076237
NA,NA,NA,NA,NA,NA,NA,blau,yellow,g,0,NA,NA,NA,4,4,52,g,1,0.6036247,sub-58076237
NA,NA,NA,NA,NA,NA,NA,gelb,yellow,g,1,NA,NA,NA,4,5,53,g,1,0.5410266,sub-58076237
NA,NA,NA,NA,NA,NA,NA,gelb,yellow,g,1,NA,NA,NA,4,6,54,g,1,0.4684444,sub-58076237
NA,NA,NA,NA,NA,NA,NA,blau,blue,b,1,NA,NA,NA,4,7,55,b,1,0.4592524,sub-58076237
NA,NA,NA,NA,NA,NA,NA,gelb,blue,b,0,NA,NA,NA,4,8,56,b,1,0.4234305,sub-58076237
NA,NA,NA,NA,NA,NA,NA,gelb,red,r,0,NA,NA,NA,4,9,57,r,1,0.4995259,sub-58076237
NA,NA,NA,NA,NA,NA,NA,rot,blue,b,0,NA,NA,NA,4,10,58,b,1,0.7362024,sub-58076237
NA,NA,NA,NA,NA,NA,NA,rot,red,r,1,NA,NA,NA,4,11,59,r,1,0.660854,sub-58076237
NA,NA,NA,NA,NA,NA,NA,gelb,yellow,g,1,NA,NA,NA,5,0,60,g,1,0.3848943,sub-58076237
NA,NA,NA,NA,NA,NA,NA,blau,blue,b,1,NA,NA,NA,5,1,61,b,1,0.467346,sub-58076237
NA,NA,NA,NA,NA,NA,NA,blau,red,r,0,NA,NA,NA,5,2,62,r,1,0.6297399,sub-58076237
NA,NA,NA,NA,NA,NA,NA,rot,red,r,1,NA,NA,NA,5,3,63,r,1,0.5291433,sub-58076237
NA,NA,NA,NA,NA,NA,NA,rot,red,r,1,NA,NA,NA,5,4,64,r,1,0.4940314,sub-58076237
NA,NA,NA,NA,NA,NA,NA,rot,blue,b,0,NA,NA,NA,5,5,65,b,1,0.5315135,sub-58076237
NA,NA,NA,NA,NA,NA,NA,gelb,yellow,g,1,NA,NA,NA,5,6,66,g,1,0.4651031,sub-58076237
NA,NA,NA,NA,NA,NA,NA,gelb,blue,b,0,NA,NA,NA,5,7,67,b,1,0.4838532,sub-58076237
NA,NA,NA,NA,NA,NA,NA,blau,blue,b,1,NA,NA,NA,5,8,68,b,1,0.5038534,sub-58076237
NA,NA,NA,NA,NA,NA,NA,gelb,red,r,0,NA,NA,NA,5,9,69,r,1,0.5985896,sub-58076237
NA,NA,NA,NA,NA,NA,NA,blau,yellow,g,0,NA,NA,NA,5,10,70,g,1,0.5174761,sub-58076237
NA,NA,NA,NA,NA,NA,NA,rot,yellow,g,0,NA,NA,NA,5,11,71,g,1,0.6027898,sub-58076237
NA,NA,NA,NA,NA,NA,NA,rot,red,r,1,NA,NA,NA,6,0,72,r,1,0.5181603,sub-58076237
NA,NA,NA,NA,NA,NA,NA,gelb,yellow,g,1,NA,NA,NA,6,1,73,g,1,0.5462336,sub-58076237
NA,NA,NA,NA,NA,NA,NA,gelb,red,r,0,NA,NA,NA,6,2,74,r,1,0.5092122,sub-58076237
NA,NA,NA,NA,NA,NA,NA,blau,red,r,0,NA,NA,NA,6,3,75,r,1,0.8733875,sub-58076237
NA,NA,NA,NA,NA,NA,NA,rot,yellow,g,0,NA,NA,NA,6,4,76,g,1,0.6122457,sub-58076237
NA,NA,NA,NA,NA,NA,NA,blau,blue,b,1,NA,NA,NA,6,5,77,b,1,0.4421373,sub-58076237
NA,NA,NA,NA,NA,NA,NA,gelb,blue,b,0,NA,NA,NA,6,6,78,b,1,0.6172799,sub-58076237
NA,NA,NA,NA,NA,NA,NA,rot,red,r,1,NA,NA,NA,6,7,79,r,1,0.5311555,sub-58076237
NA,NA,NA,NA,NA,NA,NA,gelb,yellow,g,1,NA,NA,NA,6,8,80,g,1,0.4528594,sub-58076237
NA,NA,NA,NA,NA,NA,NA,blau,blue,b,1,NA,NA,NA,6,9,81,b,1,0.5270063,sub-58076237
NA,NA,NA,NA,NA,NA,NA,blau,yellow,g,0,NA,NA,NA,6,10,82,g,1,0.8506644,sub-58076237
NA,NA,NA,NA,NA,NA,NA,rot,blue,b,0,NA,NA,NA,6,11,83,b,1,0.4820132,sub-58076237
NA,NA,NA,NA,NA,NA,NA,gelb,yellow,g,1,NA,NA,NA,7,0,84,g,1,0.397303,sub-58076237
NA,NA,NA,NA,NA,NA,NA,blau,yellow,g,0,NA,NA,NA,7,1,85,g,1,0.3974028,sub-58076237
NA,NA,NA,NA,NA,NA,NA,gelb,red,r,0,NA,NA,NA,7,2,86,b,0,0.4549796,sub-58076237
NA,NA,NA,NA,NA,NA,NA,gelb,blue,b,0,NA,NA,NA,7,3,87,b,1,0.6148051,sub-58076237
NA,NA,NA,NA,NA,NA,NA,blau,red,r,0,NA,NA,NA,7,4,88,r,1,0.4940968,sub-58076237
NA,NA,NA,NA,NA,NA,NA,rot,red,r,1,NA,NA,NA,7,5,89,r,1,0.3776059,sub-58076237
NA,NA,NA,NA,NA,NA,NA,rot,red,r,1,NA,NA,NA,7,6,90,r,1,0.4167231,sub-58076237
NA,NA,NA,NA,NA,NA,NA,rot,yellow,g,0,NA,NA,NA,7,7,91,g,1,0.5587358,sub-58076237
NA,NA,NA,NA,NA,NA,NA,gelb,yellow,g,1,NA,NA,NA,7,8,92,g,1,0.6448062,sub-58076237
NA,NA,NA,NA,NA,NA,NA,blau,blue,b,1,NA,NA,NA,7,9,93,b,1,0.4197138,sub-58076237
NA,NA,NA,NA,NA,NA,NA,rot,blue,b,0,NA,NA,NA,7,10,94,b,1,0.4986158,sub-58076237
NA,NA,NA,NA,NA,NA,NA,blau,blue,b,1,NA,NA,NA,7,11,95,b,1,0.5208771,sub-58076237
NA,NA,NA,NA,NA,NA,NA,gelb,yellow,g,1,NA,NA,NA,8,0,96,g,1,0.412274,sub-58076237
NA,NA,NA,NA,NA,NA,NA,blau,blue,b,1,NA,NA,NA,8,1,97,b,1,0.583175,sub-58076237
NA,NA,NA,NA,NA,NA,NA,rot,red,r,1,NA,NA,NA,8,2,98,r,1,0.569983,sub-58076237
NA,NA,NA,NA,NA,NA,NA,rot,yellow,g,0,NA,NA,NA,8,3,99,g,1,0.6648248,sub-58076237
NA,NA,NA,NA,NA,NA,NA,gelb,red,r,0,NA,NA,NA,8,4,100,r,1,0.8163641,sub-58076237
NA,NA,NA,NA,NA,NA,NA,gelb,blue,b,0,NA,NA,NA,8,5,101,b,1,0.6492979,sub-58076237
NA,NA,NA,NA,NA,NA,NA,blau,red,r,0,NA,NA,NA,8,6,102,r,1,0.7040135,sub-58076237
NA,NA,NA,NA,NA,NA,NA,rot,blue,b,0,NA,NA,NA,8,7,103,b,1,0.5262373,sub-58076237
NA,NA,NA,NA,NA,NA,NA,gelb,yellow,g,1,NA,NA,NA,8,8,104,g,1,0.6268216,sub-58076237
NA,NA,NA,NA,NA,NA,NA,rot,red,r,1,NA,NA,NA,8,9,105,r,1,0.5413545,sub-58076237
NA,NA,NA,NA,NA,NA,NA,blau,blue,b,1,NA,NA,NA,8,10,106,b,1,0.5004816,sub-58076237
NA,NA,NA,NA,NA,NA,NA,blau,yellow,g,0,NA,NA,NA,8,11,107,g,1,1.1832479,sub-58076237
NA,NA,NA,NA,NA,NA,NA,rot,red,r,1,NA,NA,NA,9,0,108,r,1,0.4735095,sub-58076237
NA,NA,NA,NA,NA,NA,NA,blau,yellow,g,0,NA,NA,NA,9,1,109,g,1,0.5687069,sub-58076237
NA,NA,NA,NA,NA,NA,NA,blau,red,r,0,NA,NA,NA,9,2,110,r,1,0.6988001,sub-58076237
NA,NA,NA,NA,NA,NA,NA,rot,red,r,1,NA,NA,NA,9,3,111,r,1,0.5612174,sub-58076237
NA,NA,NA,NA,NA,NA,NA,gelb,blue,b,0,NA,NA,NA,9,4,112,b,1,0.9231521,sub-58076237
NA,NA,NA,NA,NA,NA,NA,rot,yellow,g,0,NA,NA,NA,9,5,113,g,1,0.3827869,sub-58076237
NA,NA,NA,NA,NA,NA,NA,gelb,yellow,g,1,NA,NA,NA,9,6,114,g,1,0.6024069,sub-58076237
NA,NA,NA,NA,NA,NA,NA,gelb,yellow,g,1,NA,NA,NA,9,7,115,g,1,0.5111399,sub-58076237
NA,NA,NA,NA,NA,NA,NA,blau,blue,b,1,NA,NA,NA,9,8,116,b,1,0.3837086,sub-58076237
NA,NA,NA,NA,NA,NA,NA,gelb,red,r,0,NA,NA,NA,9,9,117,r,1,0.6174285,sub-58076237
NA,NA,NA,NA,NA,NA,NA,blau,blue,b,1,NA,NA,NA,9,10,118,b,1,0.4522782,sub-58076237
NA,NA,NA,NA,NA,NA,NA,rot,blue,b,0,NA,NA,NA,9,11,119,b,1,0.7630414,sub-58076237
NA,NA,NA,NA,NA,NA,NA,NA,NA,NA,NA,NA,NA,NA,NA,NA,NA,NA,NA,NA,sub-58076237
