wordCTK,colorCTK,corrAnsCTK,congruentCTK,wordPractice,colorPractice,congruentPractice,word,color,corrAns,congruent,trials_practice.thisRepN,trials_practice.thisTrialN,trials_practice.thisN,trials_test.thisRepN,trials_test.thisTrialN,trials_test.thisN,keyResp_test_run.keys,keyResp_test_run.corr,keyResp_test_run.rt,participant
NA,NA,NA,NA,NA,NA,NA,NA,NA,NA,NA,NA,NA,NA,NA,NA,NA,NA,NA,NA,sub-91080596
NA,NA,NA,NA,NA,NA,NA,NA,NA,NA,NA,NA,NA,NA,NA,NA,NA,NA,NA,NA,sub-91080596
test,blue,b,1,NA,NA,NA,NA,NA,NA,NA,NA,NA,NA,NA,NA,NA,NA,NA,NA,sub-91080596
test,yellow,g,1,NA,NA,NA,NA,NA,NA,NA,NA,NA,NA,NA,NA,NA,NA,NA,NA,sub-91080596
test,red,r,1,NA,NA,NA,NA,NA,NA,NA,NA,NA,NA,NA,NA,NA,NA,NA,NA,sub-91080596
test,red,r,1,NA,NA,NA,NA,NA,NA,NA,NA,NA,NA,NA,NA,NA,NA,NA,NA,sub-91080596
test,blue,b,1,NA,NA,NA,NA,NA,NA,NA,NA,NA,NA,NA,NA,NA,NA,NA,NA,sub-91080596
test,yellow,g,1,NA,NA,NA,NA,NA,NA,NA,NA,NA,NA,NA,NA,NA,NA,NA,NA,sub-91080596
test,yellow,g,1,NA,NA,NA,NA,NA,NA,NA,NA,NA,NA,NA,NA,NA,NA,NA,NA,sub-91080596
test,blue,b,1,NA,NA,NA,NA,NA,NA,NA,NA,NA,NA,NA,NA,NA,NA,NA,NA,sub-91080596
test,red,r,1,NA,NA,NA,NA,NA,NA,NA,NA,NA,NA,NA,NA,NA,NA,NA,NA,sub-91080596
test,yellow,g,1,NA,NA,NA,NA,NA,NA,NA,NA,NA,NA,NA,NA,NA,NA,NA,NA,sub-91080596
test,blue,b,1,NA,NA,NA,NA,NA,NA,NA,NA,NA,NA,NA,NA,NA,NA,NA,NA,sub-91080596
test,red,r,1,NA,NA,NA,NA,NA,NA,NA,NA,NA,NA,NA,NA,NA,NA,NA,NA,sub-91080596
NA,NA,NA,NA,NA,NA,NA,NA,NA,NA,NA,NA,NA,NA,NA,NA,NA,NA,NA,NA,sub-91080596
NA,NA,NA,NA,blau,blue,1,NA,NA,NA,NA,0,0,0,NA,NA,NA,NA,NA,NA,sub-91080596
NA,NA,NA,NA,blau,red,0,NA,NA,NA,NA,0,1,1,NA,NA,NA,NA,NA,NA,sub-91080596
NA,NA,NA,NA,blau,yellow,0,NA,NA,NA,NA,0,2,2,NA,NA,NA,NA,NA,NA,sub-91080596
NA,NA,NA,NA,rot,red,1,NA,NA,NA,NA,0,3,3,NA,NA,NA,NA,NA,NA,sub-91080596
NA,NA,NA,NA,gelb,red,0,NA,NA,NA,NA,0,4,4,NA,NA,NA,NA,NA,NA,sub-91080596
NA,NA,NA,NA,gelb,yellow,1,NA,NA,NA,NA,0,5,5,NA,NA,NA,NA,NA,NA,sub-91080596
NA,NA,NA,NA,blau,blue,1,NA,NA,NA,NA,0,6,6,NA,NA,NA,NA,NA,NA,sub-91080596
NA,NA,NA,NA,rot,blue,0,NA,NA,NA,NA,0,7,7,NA,NA,NA,NA,NA,NA,sub-91080596
NA,NA,NA,NA,gelb,blue,0,NA,NA,NA,NA,0,8,8,NA,NA,NA,NA,NA,NA,sub-91080596
NA,NA,NA,NA,rot,yellow,0,NA,NA,NA,NA,0,9,9,NA,NA,NA,NA,NA,NA,sub-91080596
NA,NA,NA,NA,rot,red,1,NA,NA,NA,NA,0,10,10,NA,NA,NA,NA,NA,NA,sub-91080596
NA,NA,NA,NA,gelb,yellow,1,NA,NA,NA,NA,0,11,11,NA,NA,NA,NA,NA,NA,sub-91080596
NA,NA,NA,NA,gelb,red,0,NA,NA,NA,NA,1,0,12,NA,NA,NA,NA,NA,NA,sub-91080596
NA,NA,NA,NA,gelb,blue,0,NA,NA,NA,NA,1,1,13,NA,NA,NA,NA,NA,NA,sub-91080596
NA,NA,NA,NA,blau,yellow,0,NA,NA,NA,NA,1,2,14,NA,NA,NA,NA,NA,NA,sub-91080596
NA,NA,NA,NA,blau,blue,1,NA,NA,NA,NA,1,3,15,NA,NA,NA,NA,NA,NA,sub-91080596
NA,NA,NA,NA,blau,red,0,NA,NA,NA,NA,1,4,16,NA,NA,NA,NA,NA,NA,sub-91080596
NA,NA,NA,NA,rot,yellow,0,NA,NA,NA,NA,1,5,17,NA,NA,NA,NA,NA,NA,sub-91080596
NA,NA,NA,NA,gelb,yellow,1,NA,NA,NA,NA,1,6,18,NA,NA,NA,NA,NA,NA,sub-91080596
NA,NA,NA,NA,rot,red,1,NA,NA,NA,NA,1,7,19,NA,NA,NA,NA,NA,NA,sub-91080596
NA,NA,NA,NA,rot,red,1,NA,NA,NA,NA,1,8,20,NA,NA,NA,NA,NA,NA,sub-91080596
NA,NA,NA,NA,gelb,yellow,1,NA,NA,NA,NA,1,9,21,NA,NA,NA,NA,NA,NA,sub-91080596
NA,NA,NA,NA,rot,blue,0,NA,NA,NA,NA,1,10,22,NA,NA,NA,NA,NA,NA,sub-91080596
NA,NA,NA,NA,blau,blue,1,NA,NA,NA,NA,1,11,23,NA,NA,NA,NA,NA,NA,sub-91080596
NA,NA,NA,NA,NA,NA,NA,NA,NA,NA,NA,NA,NA,NA,NA,NA,NA,NA,NA,NA,sub-91080596
NA,NA,NA,NA,NA,NA,NA,blau,blue,b,1,NA,NA,NA,0,0,0,b,1,0.5066665,sub-91080596
NA,NA,NA,NA,NA,NA,NA,blau,red,r,0,NA,NA,NA,0,1,1,r,1,0.8303671,sub-91080596
NA,NA,NA,NA,NA,NA,NA,rot,blue,b,0,NA,NA,NA,0,2,2,b,1,0.7755654,sub-91080596
NA,NA,NA,NA,NA,NA,NA,rot,yellow,g,0,NA,NA,NA,0,3,3,g,1,0.5679162,sub-91080596
NA,NA,NA,NA,NA,NA,NA,rot,red,r,1,NA,NA,NA,0,4,4,r,1,0.5951234,sub-91080596
NA,NA,NA,NA,NA,NA,NA,blau,blue,b,1,NA,NA,NA,0,5,5,b,1,0.4979883,sub-91080596
NA,NA,NA,NA,NA,NA,NA,blau,yellow,g,0,NA,NA,NA,0,6,6,g,1,0.6050549,sub-91080596
NA,NA,NA,NA,NA,NA,NA,gelb,yellow,g,1,NA,NA,NA,0,7,7,g,1,0.6607039,sub-91080596
NA,NA,NA,NA,NA,NA,NA,gelb,yellow,g,1,NA,NA,NA,0,8,8,g,1,0.4781977,sub-91080596
NA,NA,NA,NA,NA,NA,NA,gelb,blue,b,0,NA,NA,NA,0,9,9,b,1,0.4218167,sub-91080596
NA,NA,NA,NA,NA,NA,NA,gelb,red,r,0,NA,NA,NA,0,10,10,r,1,0.5046118,sub-91080596
NA,NA,NA,NA,NA,NA,NA,rot,red,r,1,NA,NA,NA,0,11,11,r,1,0.4635758,sub-91080596
NA,NA,NA,NA,NA,NA,NA,gelb,red,r,0,NA,NA,NA,1,0,12,r,1,0.4751755,sub-91080596
NA,NA,NA,NA,NA,NA,NA,rot,red,r,1,NA,NA,NA,1,1,13,r,1,0.4458554,sub-91080596
NA,NA,NA,NA,NA,NA,NA,rot,yellow,g,0,NA,NA,NA,1,2,14,g,1,0.6732328,sub-91080596
NA,NA,NA,NA,NA,NA,NA,blau,yellow,g,0,NA,NA,NA,1,3,15,g,1,0.4606096,sub-91080596
NA,NA,NA,NA,NA,NA,NA,gelb,yellow,g,1,NA,NA,NA,1,4,16,g,1,0.442469,sub-91080596
NA,NA,NA,NA,NA,NA,NA,rot,blue,b,0,NA,NA,NA,1,5,17,b,1,0.8514031,sub-91080596
NA,NA,NA,NA,NA,NA,NA,blau,blue,b,1,NA,NA,NA,1,6,18,b,1,0.6176351,sub-91080596
NA,NA,NA,NA,NA,NA,NA,blau,blue,b,1,NA,NA,NA,1,7,19,b,1,0.4705698,sub-91080596
NA,NA,NA,NA,NA,NA,NA,gelb,yellow,g,1,NA,NA,NA,1,8,20,g,1,1.3624285,sub-91080596
NA,NA,NA,NA,NA,NA,NA,rot,red,r,1,NA,NA,NA,1,9,21,r,1,0.5792956,sub-91080596
NA,NA,NA,NA,NA,NA,NA,gelb,blue,b,0,NA,NA,NA,1,10,22,b,1,0.6228758,sub-91080596
NA,NA,NA,NA,NA,NA,NA,blau,red,r,0,NA,NA,NA,1,11,23,r,1,0.760366,sub-91080596
NA,NA,NA,NA,NA,NA,NA,rot,yellow,g,0,NA,NA,NA,2,0,24,g,1,0.588099,sub-91080596
NA,NA,NA,NA,NA,NA,NA,blau,red,r,0,NA,NA,NA,2,1,25,b,0,0.4804379,sub-91080596
NA,NA,NA,NA,NA,NA,NA,blau,yellow,g,0,NA,NA,NA,2,2,26,g,1,1.2469158,sub-91080596
NA,NA,NA,NA,NA,NA,NA,gelb,yellow,g,1,NA,NA,NA,2,3,27,g,1,1.1011824,sub-91080596
NA,NA,NA,NA,NA,NA,NA,blau,blue,b,1,NA,NA,NA,2,4,28,b,1,0.6482726,sub-91080596
NA,NA,NA,NA,NA,NA,NA,rot,red,r,1,NA,NA,NA,2,5,29,r,1,0.7780284,sub-91080596
NA,NA,NA,NA,NA,NA,NA,gelb,blue,b,0,NA,NA,NA,2,6,30,b,1,0.9737839,sub-91080596
NA,NA,NA,NA,NA,NA,NA,blau,blue,b,1,NA,NA,NA,2,7,31,b,1,0.5972561,sub-91080596
NA,NA,NA,NA,NA,NA,NA,rot,blue,b,0,NA,NA,NA,2,8,32,b,1,0.9383716,sub-91080596
NA,NA,NA,NA,NA,NA,NA,gelb,yellow,g,1,NA,NA,NA,2,9,33,g,1,0.6297078,sub-91080596
NA,NA,NA,NA,NA,NA,NA,rot,red,r,1,NA,NA,NA,2,10,34,r,1,0.5233871,sub-91080596
NA,NA,NA,NA,NA,NA,NA,gelb,red,r,0,NA,NA,NA,2,11,35,r,1,0.4984138,sub-91080596
NA,NA,NA,NA,NA,NA,NA,gelb,blue,b,0,NA,NA,NA,3,0,36,b,1,0.8931812,sub-91080596
NA,NA,NA,NA,NA,NA,NA,blau,yellow,g,0,NA,NA,NA,3,1,37,g,1,0.6505932,sub-91080596
NA,NA,NA,NA,NA,NA,NA,gelb,yellow,g,1,NA,NA,NA,3,2,38,g,1,0.4458024,sub-91080596
NA,NA,NA,NA,NA,NA,NA,blau,blue,b,1,NA,NA,NA,3,3,39,b,1,0.5770026,sub-91080596
NA,NA,NA,NA,NA,NA,NA,rot,yellow,g,0,NA,NA,NA,3,4,40,g,1,1.2445642,sub-91080596
NA,NA,NA,NA,NA,NA,NA,rot,red,r,1,NA,NA,NA,3,5,41,r,1,0.6905274,sub-91080596
NA,NA,NA,NA,NA,NA,NA,gelb,yellow,g,1,NA,NA,NA,3,6,42,g,1,1.3402929,sub-91080596
NA,NA,NA,NA,NA,NA,NA,rot,blue,b,0,NA,NA,NA,3,7,43,b,1,0.9559093,sub-91080596
NA,NA,NA,NA,NA,NA,NA,blau,red,r,0,NA,NA,NA,3,8,44,r,1,1.8877619,sub-91080596
NA,NA,NA,NA,NA,NA,NA,blau,blue,b,1,NA,NA,NA,3,9,45,b,1,0.8671823,sub-91080596
NA,NA,NA,NA,NA,NA,NA,gelb,red,r,0,NA,NA,NA,3,10,46,r,1,0.8658467,sub-91080596
NA,NA,NA,NA,NA,NA,NA,rot,red,r,1,NA,NA,NA,3,11,47,r,1,0.5185726,sub-91080596
NA,NA,NA,NA,NA,NA,NA,rot,red,r,1,NA,NA,NA,4,0,48,r,1,0.4469943,sub-91080596
NA,NA,NA,NA,NA,NA,NA,gelb,yellow,g,1,NA,NA,NA,4,1,49,g,1,0.5635597,sub-91080596
NA,NA,NA,NA,NA,NA,NA,blau,blue,b,1,NA,NA,NA,4,2,50,b,1,0.5025126,sub-91080596
NA,NA,NA,NA,NA,NA,NA,blau,blue,b,1,NA,NA,NA,4,3,51,b,1,0.5149661,sub-91080596
NA,NA,NA,NA,NA,NA,NA,blau,red,r,0,NA,NA,NA,4,4,52,r,1,0.8034904,sub-91080596
NA,NA,NA,NA,NA,NA,NA,rot,yellow,g,0,NA,NA,NA,4,5,53,g,1,0.7907182,sub-91080596
NA,NA,NA,NA,NA,NA,NA,rot,blue,b,0,NA,NA,NA,4,6,54,b,1,0.7179114,sub-91080596
NA,NA,NA,NA,NA,NA,NA,gelb,blue,b,0,NA,NA,NA,4,7,55,b,1,0.9922675,sub-91080596
NA,NA,NA,NA,NA,NA,NA,blau,yellow,g,0,NA,NA,NA,4,8,56,g,1,1.024148,sub-91080596
NA,NA,NA,NA,NA,NA,NA,gelb,red,r,0,NA,NA,NA,4,9,57,r,1,0.6596749,sub-91080596
NA,NA,NA,NA,NA,NA,NA,gelb,yellow,g,1,NA,NA,NA,4,10,58,g,1,1.2190062,sub-91080596
NA,NA,NA,NA,NA,NA,NA,rot,red,r,1,NA,NA,NA,4,11,59,r,1,0.5647893,sub-91080596
NA,NA,NA,NA,NA,NA,NA,blau,blue,b,1,NA,NA,NA,5,0,60,b,1,0.458858,sub-91080596
NA,NA,NA,NA,NA,NA,NA,blau,red,r,0,NA,NA,NA,5,1,61,r,1,1.1398568,sub-91080596
NA,NA,NA,NA,NA,NA,NA,gelb,blue,b,0,NA,NA,NA,5,2,62,b,1,0.8132781,sub-91080596
NA,NA,NA,NA,NA,NA,NA,gelb,yellow,g,1,NA,NA,NA,5,3,63,g,1,0.650053,sub-91080596
NA,NA,NA,NA,NA,NA,NA,rot,yellow,g,0,NA,NA,NA,5,4,64,g,1,0.6265105,sub-91080596
NA,NA,NA,NA,NA,NA,NA,rot,red,r,1,NA,NA,NA,5,5,65,r,1,0.5899335,sub-91080596
NA,NA,NA,NA,NA,NA,NA,gelb,red,r,0,NA,NA,NA,5,6,66,r,1,0.77521,sub-91080596
NA,NA,NA,NA,NA,NA,NA,rot,blue,b,0,NA,NA,NA,5,7,67,b,1,0.492856,sub-91080596
NA,NA,NA,NA,NA,NA,NA,gelb,yellow,g,1,NA,NA,NA,5,8,68,g,1,0.5920491,sub-91080596
NA,NA,NA,NA,NA,NA,NA,blau,yellow,g,0,NA,NA,NA,5,9,69,g,1,0.7294495,sub-91080596
NA,NA,NA,NA,NA,NA,NA,blau,blue,b,1,NA,NA,NA,5,10,70,b,1,0.4777102,sub-91080596
NA,NA,NA,NA,NA,NA,NA,rot,red,r,1,NA,NA,NA,5,11,71,r,1,0.5336921,sub-91080596
NA,NA,NA,NA,NA,NA,NA,blau,blue,b,1,NA,NA,NA,6,0,72,b,1,0.645395,sub-91080596
NA,NA,NA,NA,NA,NA,NA,rot,red,r,1,NA,NA,NA,6,1,73,r,1,0.6921533,sub-91080596
NA,NA,NA,NA,NA,NA,NA,blau,blue,b,1,NA,NA,NA,6,2,74,b,1,0.4804999,sub-91080596
NA,NA,NA,NA,NA,NA,NA,gelb,red,r,0,NA,NA,NA,6,3,75,r,1,0.7315177,sub-91080596
NA,NA,NA,NA,NA,NA,NA,blau,yellow,g,0,NA,NA,NA,6,4,76,g,1,0.711521,sub-91080596
NA,NA,NA,NA,NA,NA,NA,gelb,yellow,g,1,NA,NA,NA,6,5,77,g,1,0.4464754,sub-91080596
NA,NA,NA,NA,NA,NA,NA,blau,red,r,0,NA,NA,NA,6,6,78,r,1,0.626667,sub-91080596
NA,NA,NA,NA,NA,NA,NA,rot,blue,b,0,NA,NA,NA,6,7,79,b,1,0.6212894,sub-91080596
NA,NA,NA,NA,NA,NA,NA,gelb,blue,b,0,NA,NA,NA,6,8,80,b,1,0.5121644,sub-91080596
NA,NA,NA,NA,NA,NA,NA,gelb,yellow,g,1,NA,NA,NA,6,9,81,g,1,0.558629,sub-91080596
NA,NA,NA,NA,NA,NA,NA,rot,yellow,g,0,NA,NA,NA,6,10,82,g,1,0.4851571,sub-91080596
NA,NA,NA,NA,NA,NA,NA,rot,red,r,1,NA,NA,NA,6,11,83,r,1,0.379321,sub-91080596
NA,NA,NA,NA,NA,NA,NA,blau,blue,b,1,NA,NA,NA,7,0,84,b,1,0.5232801,sub-91080596
NA,NA,NA,NA,NA,NA,NA,gelb,yellow,g,1,NA,NA,NA,7,1,85,g,1,0.5149394,sub-91080596
NA,NA,NA,NA,NA,NA,NA,gelb,blue,b,0,NA,NA,NA,7,2,86,b,1,0.9662187,sub-91080596
NA,NA,NA,NA,NA,NA,NA,rot,red,r,1,NA,NA,NA,7,3,87,r,1,0.6027511,sub-91080596
NA,NA,NA,NA,NA,NA,NA,blau,red,r,0,NA,NA,NA,7,4,88,r,1,0.9260096,sub-91080596
NA,NA,NA,NA,NA,NA,NA,gelb,yellow,g,1,NA,NA,NA,7,5,89,g,1,0.7490587,sub-91080596
NA,NA,NA,NA,NA,NA,NA,gelb,red,r,0,NA,NA,NA,7,6,90,b,0,0.6253381,sub-91080596
NA,NA,NA,NA,NA,NA,NA,rot,red,r,1,NA,NA,NA,7,7,91,r,1,1.6827865,sub-91080596
NA,NA,NA,NA,NA,NA,NA,rot,blue,b,0,NA,NA,NA,7,8,92,b,1,0.8095334,sub-91080596
NA,NA,NA,NA,NA,NA,NA,blau,blue,b,1,NA,NA,NA,7,9,93,b,1,0.6591066,sub-91080596
NA,NA,NA,NA,NA,NA,NA,rot,yellow,g,0,NA,NA,NA,7,10,94,g,1,0.5012816,sub-91080596
NA,NA,NA,NA,NA,NA,NA,blau,yellow,g,0,NA,NA,NA,7,11,95,g,1,0.6555648,sub-91080596
NA,NA,NA,NA,NA,NA,NA,blau,red,r,0,NA,NA,NA,8,0,96,r,1,0.8439549,sub-91080596
NA,NA,NA,NA,NA,NA,NA,blau,blue,b,1,NA,NA,NA,8,1,97,b,1,0.5746897,sub-91080596
NA,NA,NA,NA,NA,NA,NA,gelb,yellow,g,1,NA,NA,NA,8,2,98,g,1,0.8859257,sub-91080596
NA,NA,NA,NA,NA,NA,NA,gelb,red,r,0,NA,NA,NA,8,3,99,r,1,0.6098641,sub-91080596
NA,NA,NA,NA,NA,NA,NA,blau,blue,b,1,NA,NA,NA,8,4,100,b,1,0.6886383,sub-91080596
NA,NA,NA,NA,NA,NA,NA,gelb,yellow,g,1,NA,NA,NA,8,5,101,g,1,0.8120577,sub-91080596
NA,NA,NA,NA,NA,NA,NA,rot,red,r,1,NA,NA,NA,8,6,102,r,1,0.529495,sub-91080596
NA,NA,NA,NA,NA,NA,NA,rot,blue,b,0,NA,NA,NA,8,7,103,b,1,0.9037815,sub-91080596
NA,NA,NA,NA,NA,NA,NA,rot,red,r,1,NA,NA,NA,8,8,104,r,1,0.5684464,sub-91080596
NA,NA,NA,NA,NA,NA,NA,gelb,blue,b,0,NA,NA,NA,8,9,105,b,1,0.8928726,sub-91080596
NA,NA,NA,NA,NA,NA,NA,rot,yellow,g,0,NA,NA,NA,8,10,106,g,1,0.8462218,sub-91080596
NA,NA,NA,NA,NA,NA,NA,blau,yellow,g,0,NA,NA,NA,8,11,107,g,1,0.4241103,sub-91080596
NA,NA,NA,NA,NA,NA,NA,gelb,yellow,g,1,NA,NA,NA,9,0,108,g,1,0.4163759,sub-91080596
NA,NA,NA,NA,NA,NA,NA,rot,yellow,g,0,NA,NA,NA,9,1,109,g,1,0.4430962,sub-91080596
NA,NA,NA,NA,NA,NA,NA,gelb,yellow,g,1,NA,NA,NA,9,2,110,g,1,0.7721838,sub-91080596
NA,NA,NA,NA,NA,NA,NA,blau,red,r,0,NA,NA,NA,9,3,111,r,1,0.5517688,sub-91080596
NA,NA,NA,NA,NA,NA,NA,blau,blue,b,1,NA,NA,NA,9,4,112,b,1,0.502645,sub-91080596
NA,NA,NA,NA,NA,NA,NA,gelb,red,r,0,NA,NA,NA,9,5,113,r,1,0.5391921,sub-91080596
NA,NA,NA,NA,NA,NA,NA,blau,blue,b,1,NA,NA,NA,9,6,114,b,1,0.9244068,sub-91080596
NA,NA,NA,NA,NA,NA,NA,gelb,blue,b,0,NA,NA,NA,9,7,115,b,1,0.4567674,sub-91080596
NA,NA,NA,NA,NA,NA,NA,rot,red,r,1,NA,NA,NA,9,8,116,r,1,0.5733599,sub-91080596
NA,NA,NA,NA,NA,NA,NA,rot,red,r,1,NA,NA,NA,9,9,117,r,1,0.4528575,sub-91080596
NA,NA,NA,NA,NA,NA,NA,rot,blue,b,0,NA,NA,NA,9,10,118,b,1,0.7643502,sub-91080596
NA,NA,NA,NA,NA,NA,NA,blau,yellow,g,0,NA,NA,NA,9,11,119,g,1,0.5452637,sub-91080596
NA,NA,NA,NA,NA,NA,NA,NA,NA,NA,NA,NA,NA,NA,NA,NA,NA,NA,NA,NA,sub-91080596
