direction,corrAns,randomInstr,practice_trials.thisRepN,practice_trials.thisTrialN,practice_trials.thisN,test_trials.thisRepN,test_trials.thisTrialN,test_trials.thisN,respDots.keys,respDots.corr,respDots.rt,participant
NA,NA,NA,NA,NA,NA,NA,NA,NA,NA,NA,NA,sub-94150017
left,left,NA,0,0,0,NA,NA,NA,left,1,8.02955470001325,sub-94150017
right,right,NA,0,1,1,NA,NA,NA,right,1,6.197170799976448,sub-94150017
right,right,NA,1,0,2,NA,NA,NA,left,0,5.884941500000423,sub-94150017
left,left,NA,1,1,3,NA,NA,NA,left,1,5.616513300017687,sub-94150017
left,left,NA,2,0,4,NA,NA,NA,left,1,5.501455199992051,sub-94150017
right,right,NA,2,1,5,NA,NA,NA,left,0,5.575327300000936,sub-94150017
right,right,NA,3,0,6,NA,NA,NA,right,1,6.0321724000095855,sub-94150017
left,left,NA,3,1,7,NA,NA,NA,left,1,6.324527999997372,sub-94150017
left,left,NA,4,0,8,NA,NA,NA,left,1,5.575648300000466,sub-94150017
right,right,NA,4,1,9,NA,NA,NA,right,1,6.035676500003319,sub-94150017
right,right,NA,5,0,10,NA,NA,NA,left,0,6.311668299982557,sub-94150017
left,left,NA,5,1,11,NA,NA,NA,left,1,6.007717999978922,sub-94150017
right,right,NA,6,0,12,NA,NA,NA,right,1,5.799444499978563,sub-94150017
left,left,NA,6,1,13,NA,NA,NA,left,1,5.733953900024062,sub-94150017
left,left,NA,7,0,14,NA,NA,NA,right,0,5.543648100021528,sub-94150017
right,right,NA,7,1,15,NA,NA,NA,left,0,5.5368063999922015,sub-94150017
left,left,NA,8,0,16,NA,NA,NA,right,0,5.390889400005108,sub-94150017
right,right,NA,8,1,17,NA,NA,NA,left,0,5.596439799992368,sub-94150017
right,right,NA,9,0,18,NA,NA,NA,right,1,5.645008399995277,sub-94150017
left,left,NA,9,1,19,NA,NA,NA,right,0,5.806967300013639,sub-94150017
NA,NA,NA,NA,NA,NA,NA,NA,NA,NA,NA,NA,sub-94150017
NA,NA,NA,NA,NA,NA,NA,NA,NA,NA,NA,NA,sub-94150017
left,left,accuracy,NA,NA,NA,0,0,0,left,1,5.402689200011082,sub-94150017
right,right,accuracy,NA,NA,NA,0,1,1,left,0,5.946280800009845,sub-94150017
left,left,accuracy,NA,NA,NA,1,0,2,right,0,5.592312399996445,sub-94150017
right,right,accuracy,NA,NA,NA,1,1,3,left,0,6.871101800003089,sub-94150017
left,left,accuracy,NA,NA,NA,2,0,4,right,0,5.688674600009108,sub-94150017
right,right,accuracy,NA,NA,NA,2,1,5,right,1,5.653757400024915,sub-94150017
left,left,accuracy,NA,NA,NA,3,0,6,left,1,5.574699299992062,sub-94150017
right,right,accuracy,NA,NA,NA,3,1,7,left,0,5.488753599987831,sub-94150017
left,left,accuracy,NA,NA,NA,4,0,8,left,1,5.557915599987609,sub-94150017
right,right,accuracy,NA,NA,NA,4,1,9,right,1,5.408392399986042,sub-94150017
left,left,accuracy,NA,NA,NA,5,0,10,left,1,5.351975099998526,sub-94150017
right,right,accuracy,NA,NA,NA,5,1,11,left,0,5.460968100000173,sub-94150017
left,left,accuracy,NA,NA,NA,6,0,12,left,1,5.352031599992188,sub-94150017
right,right,accuracy,NA,NA,NA,6,1,13,right,1,6.186470799992094,sub-94150017
left,left,accuracy,NA,NA,NA,7,0,14,left,1,5.445158000016818,sub-94150017
right,right,accuracy,NA,NA,NA,7,1,15,left,0,5.193662300007418,sub-94150017
right,right,accuracy,NA,NA,NA,8,0,16,left,0,5.754942700004904,sub-94150017
left,left,accuracy,NA,NA,NA,8,1,17,left,1,5.664398199995048,sub-94150017
right,right,accuracy,NA,NA,NA,9,0,18,right,1,5.482754500000738,sub-94150017
left,left,accuracy,NA,NA,NA,9,1,19,left,1,5.511632400011877,sub-94150017
left,left,accuracy,NA,NA,NA,10,0,20,left,1,5.597951899981126,sub-94150017
right,right,accuracy,NA,NA,NA,10,1,21,right,1,5.6065000999951735,sub-94150017
left,left,accuracy,NA,NA,NA,11,0,22,left,1,5.702867799991509,sub-94150017
right,right,accuracy,NA,NA,NA,11,1,23,left,0,5.781584899988957,sub-94150017
right,right,accuracy,NA,NA,NA,12,0,24,left,0,5.794896299979882,sub-94150017
left,left,accuracy,NA,NA,NA,12,1,25,left,1,5.394740499992622,sub-94150017
right,right,accuracy,NA,NA,NA,13,0,26,right,1,5.4440321999718435,sub-94150017
left,left,accuracy,NA,NA,NA,13,1,27,left,1,5.4019205999793485,sub-94150017
right,right,accuracy,NA,NA,NA,14,0,28,right,1,5.624993100005668,sub-94150017
left,left,accuracy,NA,NA,NA,14,1,29,left,1,5.568347599997651,sub-94150017
right,right,accuracy,NA,NA,NA,15,0,30,right,1,5.444244800019078,sub-94150017
left,left,accuracy,NA,NA,NA,15,1,31,left,1,5.414509399997769,sub-94150017
left,left,accuracy,NA,NA,NA,16,0,32,right,0,5.437262400024338,sub-94150017
right,right,accuracy,NA,NA,NA,16,1,33,left,0,5.512029800011078,sub-94150017
left,left,accuracy,NA,NA,NA,17,0,34,left,1,5.4382281999860425,sub-94150017
right,right,accuracy,NA,NA,NA,17,1,35,right,1,5.4064792999997735,sub-94150017
right,right,accuracy,NA,NA,NA,18,0,36,right,1,5.616103499982273,sub-94150017
left,left,accuracy,NA,NA,NA,18,1,37,left,1,5.4050969000090845,sub-94150017
right,right,accuracy,NA,NA,NA,19,0,38,left,0,6.785876400012057,sub-94150017
left,left,accuracy,NA,NA,NA,19,1,39,left,1,5.526850300026126,sub-94150017
left,left,accuracy,NA,NA,NA,20,0,40,right,0,5.401150399993639,sub-94150017
right,right,accuracy,NA,NA,NA,20,1,41,right,1,5.631372300005751,sub-94150017
right,right,accuracy,NA,NA,NA,21,0,42,right,1,5.8437424000003375,sub-94150017
left,left,accuracy,NA,NA,NA,21,1,43,left,1,5.788642100000288,sub-94150017
right,right,accuracy,NA,NA,NA,22,0,44,right,1,5.433033200009959,sub-94150017
left,left,accuracy,NA,NA,NA,22,1,45,left,1,5.742528599977959,sub-94150017
right,right,accuracy,NA,NA,NA,23,0,46,right,1,5.406485199986491,sub-94150017
left,left,accuracy,NA,NA,NA,23,1,47,right,0,5.673603800009005,sub-94150017
left,left,accuracy,NA,NA,NA,24,0,48,right,0,5.414081399998395,sub-94150017
right,right,accuracy,NA,NA,NA,24,1,49,right,1,5.535104600014165,sub-94150017
left,left,accuracy,NA,NA,NA,25,0,50,left,1,5.394514200015692,sub-94150017
right,right,accuracy,NA,NA,NA,25,1,51,left,0,5.402608800010057,sub-94150017
right,right,accuracy,NA,NA,NA,26,0,52,left,0,5.453577500011306,sub-94150017
left,left,accuracy,NA,NA,NA,26,1,53,right,0,5.3055063000065275,sub-94150017
right,right,accuracy,NA,NA,NA,27,0,54,right,1,5.240372800006298,sub-94150017
left,left,accuracy,NA,NA,NA,27,1,55,left,1,5.646201800002018,sub-94150017
left,left,accuracy,NA,NA,NA,28,0,56,left,1,5.630805499997223,sub-94150017
right,right,accuracy,NA,NA,NA,28,1,57,left,0,5.642348800000036,sub-94150017
right,right,accuracy,NA,NA,NA,29,0,58,right,1,5.582386099995347,sub-94150017
left,left,accuracy,NA,NA,NA,29,1,59,left,1,5.541508499998599,sub-94150017
NA,NA,accuracy,NA,NA,NA,NA,NA,NA,NA,NA,NA,sub-94150017
left,left,speed,NA,NA,NA,0,0,0,left,1,2.1477981000207365,sub-94150017
right,right,speed,NA,NA,NA,0,1,1,left,0,3.152209000021685,sub-94150017
left,left,speed,NA,NA,NA,1,0,2,right,0,5.2645641999843065,sub-94150017
right,right,speed,NA,NA,NA,1,1,3,left,0,5.232605199998943,sub-94150017
left,left,speed,NA,NA,NA,2,0,4,right,0,5.558256400021492,sub-94150017
right,right,speed,NA,NA,NA,2,1,5,left,0,5.390548499999568,sub-94150017
right,right,speed,NA,NA,NA,3,0,6,right,1,5.333137899986468,sub-94150017
left,left,speed,NA,NA,NA,3,1,7,right,0,5.441762900009053,sub-94150017
left,left,speed,NA,NA,NA,4,0,8,left,1,5.412753399985377,sub-94150017
right,right,speed,NA,NA,NA,4,1,9,left,0,5.342532399983611,sub-94150017
right,right,speed,NA,NA,NA,5,0,10,left,0,5.565363200003048,sub-94150017
left,left,speed,NA,NA,NA,5,1,11,right,0,5.358924100000877,sub-94150017
left,left,speed,NA,NA,NA,6,0,12,left,1,5.383142799983034,sub-94150017
right,right,speed,NA,NA,NA,6,1,13,left,0,5.309687300003134,sub-94150017
left,left,speed,NA,NA,NA,7,0,14,left,1,5.405112899985397,sub-94150017
right,right,speed,NA,NA,NA,7,1,15,right,1,5.39311330000055,sub-94150017
left,left,speed,NA,NA,NA,8,0,16,right,0,5.571823100006441,sub-94150017
right,right,speed,NA,NA,NA,8,1,17,right,1,5.385911699995631,sub-94150017
left,left,speed,NA,NA,NA,9,0,18,right,0,5.2911064000218175,sub-94150017
right,right,speed,NA,NA,NA,9,1,19,right,1,5.290796799992677,sub-94150017
right,right,speed,NA,NA,NA,10,0,20,left,0,5.380323999997927,sub-94150017
left,left,speed,NA,NA,NA,10,1,21,left,1,5.376902999996673,sub-94150017
left,left,speed,NA,NA,NA,11,0,22,left,1,5.299563399981707,sub-94150017
right,right,speed,NA,NA,NA,11,1,23,left,0,5.430308900016826,sub-94150017
left,left,speed,NA,NA,NA,12,0,24,right,0,5.334477800002787,sub-94150017
right,right,speed,NA,NA,NA,12,1,25,left,0,5.394278899999335,sub-94150017
right,right,speed,NA,NA,NA,13,0,26,left,0,5.35878439998487,sub-94150017
left,left,speed,NA,NA,NA,13,1,27,left,1,4.913933600008022,sub-94150017
left,left,speed,NA,NA,NA,14,0,28,left,1,5.619867800007341,sub-94150017
right,right,speed,NA,NA,NA,14,1,29,right,1,5.305849700002,sub-94150017
left,left,speed,NA,NA,NA,15,0,30,right,0,5.275870799989207,sub-94150017
right,right,speed,NA,NA,NA,15,1,31,left,0,5.432452100008959,sub-94150017
right,right,speed,NA,NA,NA,16,0,32,left,0,1.9237933999975212,sub-94150017
left,left,speed,NA,NA,NA,16,1,33,right,0,1.949770700011868,sub-94150017
left,left,speed,NA,NA,NA,17,0,34,left,1,0.9387044000031892,sub-94150017
right,right,speed,NA,NA,NA,17,1,35,left,0,3.70093839999754,sub-94150017
left,left,speed,NA,NA,NA,18,0,36,right,0,3.2227018999983557,sub-94150017
right,right,speed,NA,NA,NA,18,1,37,left,0,2.044910799973877,sub-94150017
right,right,speed,NA,NA,NA,19,0,38,right,1,3.0299354000017047,sub-94150017
left,left,speed,NA,NA,NA,19,1,39,right,0,3.322722899989458,sub-94150017
left,left,speed,NA,NA,NA,20,0,40,left,1,2.272869400010677,sub-94150017
right,right,speed,NA,NA,NA,20,1,41,right,1,1.2573074999963865,sub-94150017
right,right,speed,NA,NA,NA,21,0,42,right,1,2.0116734000039287,sub-94150017
left,left,speed,NA,NA,NA,21,1,43,right,0,2.6246497000101954,sub-94150017
right,right,speed,NA,NA,NA,22,0,44,left,0,2.5066657999996096,sub-94150017
left,left,speed,NA,NA,NA,22,1,45,right,0,3.765653100010241,sub-94150017
left,left,speed,NA,NA,NA,23,0,46,right,0,2.067555599991465,sub-94150017
right,right,speed,NA,NA,NA,23,1,47,left,0,2.0880923000222538,sub-94150017
left,left,speed,NA,NA,NA,24,0,48,left,1,1.5363524999993388,sub-94150017
right,right,speed,NA,NA,NA,24,1,49,right,1,1.929333799984306,sub-94150017
left,left,speed,NA,NA,NA,25,0,50,right,0,4.975681599986274,sub-94150017
right,right,speed,NA,NA,NA,25,1,51,left,0,2.902539200003958,sub-94150017
left,left,speed,NA,NA,NA,26,0,52,left,1,2.6265342000115197,sub-94150017
right,right,speed,NA,NA,NA,26,1,53,right,1,2.56511500000488,sub-94150017
left,left,speed,NA,NA,NA,27,0,54,left,1,2.665566799987573,sub-94150017
right,right,speed,NA,NA,NA,27,1,55,left,0,2.1146696000068914,sub-94150017
right,right,speed,NA,NA,NA,28,0,56,right,1,1.7451671000162603,sub-94150017
left,left,speed,NA,NA,NA,28,1,57,right,0,2.3371065000246745,sub-94150017
right,right,speed,NA,NA,NA,29,0,58,right,1,3.020016800001031,sub-94150017
left,left,speed,NA,NA,NA,29,1,59,right,0,1.8222229999955744,sub-94150017
NA,NA,speed,NA,NA,NA,NA,NA,NA,NA,NA,NA,sub-94150017
NA,NA,NA,NA,NA,NA,NA,NA,NA,NA,NA,NA,sub-94150017
