wordCTK,colorCTK,corrAnsCTK,congruentCTK,wordPractice,colorPractice,corrAnsPractice,congruentPractice,word,color,corrAns,congruent,trials_CTK.thisRepN,trials_CTK.thisTrialN,trials_CTK.thisN,trials_CTK.thisIndex,trials_practice.thisRepN,trials_practice.thisTrialN,trials_practice.thisN,trials_practice.thisIndex,trials_test.thisRepN,trials_test.thisTrialN,trials_test.thisN,trials_test.thisIndex,thisRow.t,notes,instruction.started,instr_text.started,instr_image.started,instr_resp.started,instruction.stopped,instr_resp.keys,instr_resp.rt,instr_resp.duration,instr_color_to_key.started,instr_ctk.started,resp_ctk.started,instr_color_to_key.stopped,resp_ctk.keys,resp_ctk.rt,resp_ctk.duration,ITI.started,fixcross.started,fixcross.stopped,ITI.stopped,color_to_key_run.started,stimulus_CTK.started,keyResp_CTK.started,color_to_key_run.stopped,keyResp_CTK.keys,keyResp_CTK.corr,keyResp_CTK.rt,keyResp_CTK.duration,instr_practice.started,instr_practice_text.started,instr_practice_resp.started,instr_practice.stopped,instr_practice_resp.keys,instr_practice_resp.rt,instr_practice_resp.duration,practice_run.started,stimulus_practice.started,respPractice.started,practice_run.stopped,respPractice.keys,respPractice.corr,respPractice.rt,respPractice.duration,feedback.started,textFeedback.started,feedback.stopped,textFeedback.stopped,instr_test.started,instr_test_text.started,instr_test_resp.started,instr_test.stopped,instr_test_resp.keys,instr_test_resp.rt,instr_test_resp.duration,test_run.started,stimulus_test_run.started,keyResp_test_run.started,test_run.stopped,keyResp_test_run.keys,keyResp_test_run.corr,keyResp_test_run.rt,keyResp_test_run.duration,goodbye.started,textGoodbye.started,goodbye.stopped,participant,session,date,expName,psychopyVersion,frameRate,expStart,
,,,,,,,,,,,,,,,,,,,,,,,,,,0.0405148999998346,0.12344650004524738,0.12344650004524738,0.12344650004524738,78.5417393000098,space,78.40877579990774,None,,,,,,,,,,,,,,,,,,,,,,,,,,,,,,,,,,,,,,,,,,,,,,,,,,,,,,,,,sub-864538,001,2024-03-11_18h11.51.015,stroop_test,2023.2.3,60.18317350039054,2024-03-11 18h11.58.407035 +0100,
,,,,,,,,,,,,,,,,,,,,,,,,,,,,,,,,,,78.54179459996521,78.55724930006545,78.55724930006545,96.50471080001444,space,17.936313799931668,None,,,,,,,,,,,,,,,,,,,,,,,,,,,,,,,,,,,,,,,,,,,,,,,,,,sub-864538,001,2024-03-11_18h11.51.015,stroop_test,2023.2.3,60.18317350039054,2024-03-11 18h11.58.407035 +0100,
test,blue,b,1,,,,,,,,,0,0,0,2,,,,,,,,,96.52402260003146,,,,,,,,,,,,,,,,,96.52092330006417,97.31982910004444,98.1197224999778,98.10376680002082,98.10379900003318,98.1197224999778,98.1197224999778,104.60308090003673,b,1,6.48009510000702,None,,,,,,,,,,,,,,,,,,,,,,,,,,,,,,,,,,,,,,sub-864538,001,2024-03-11_18h11.51.015,stroop_test,2023.2.3,60.18317350039054,2024-03-11 18h11.58.407035 +0100,
test,yellow,g,1,,,,,,,,,0,1,1,1,,,,,,,,,104.61820260004606,,,,,,,,,,,,,,,,,104.60450440004934,104.71819439996034,105.51798260002397,105.5023833999876,105.50241439999081,105.51798260002397,105.51798260002397,107.55246919998899,g,1,2.017306499998085,None,,,,,,,,,,,,,,,,,,,,,,,,,,,,,,,,,,,,,,sub-864538,001,2024-03-11_18h11.51.015,stroop_test,2023.2.3,60.18317350039054,2024-03-11 18h11.58.407035 +0100,
test,red,r,1,,,,,,,,,0,2,2,0,,,,,,,,,107.5675690000644,,,,,,,,,,,,,,,,,107.55350090004504,107.66754060005769,108.46753050002735,108.45156660000794,108.45159780001268,108.46753050002735,108.46753050002735,110.33456220000517,r,1,1.8645500999409705,None,,,,,,,,,,,,,,,,,,,,,,,,,,,,,,,,,,,,,,sub-864538,001,2024-03-11_18h11.51.015,stroop_test,2023.2.3,60.18317350039054,2024-03-11 18h11.58.407035 +0100,
test,blue,b,1,,,,,,,,,1,0,3,2,,,,,,,,,110.35049740003888,,,,,,,,,,,,,,,,,110.3354890999617,110.4502529000165,111.2501757000573,111.23436040000524,111.23439270001836,111.2501757000573,111.2501757000573,114.06772709998768,b,1,2.813494800007902,None,,,,,,,,,,,,,,,,,,,,,,,,,,,,,,,,,,,,,,sub-864538,001,2024-03-11_18h11.51.015,stroop_test,2023.2.3,60.18317350039054,2024-03-11 18h11.58.407035 +0100,
test,red,r,1,,,,,,,,,1,1,4,0,,,,,,,,,114.08263449999504,,,,,,,,,,,,,,,,,114.06879499997012,114.18296620005276,114.98272540001199,114.96686090005096,114.96689110004809,114.98272540001199,114.98272540001199,116.80065510002896,r,1,1.806460399995558,None,,,,,,,,,,,,,,,,,,,,,,,,,,,,,,,,,,,,,,sub-864538,001,2024-03-11_18h11.51.015,stroop_test,2023.2.3,60.18317350039054,2024-03-11 18h11.58.407035 +0100,
test,yellow,g,1,,,,,,,,,1,2,5,1,,,,,,,,,116.81536740006413,,,,,,,,,,,,,,,,,116.80200979998335,116.91574650001712,117.7154712000629,117.69960599998012,117.69963739998639,117.7154712000629,117.7154712000629,119.050311399973,g,1,1.3177495000418276,None,,,,,,,,,,,,,,,,,,,,,,,,,,,,,,,,,,,,,,sub-864538,001,2024-03-11_18h11.51.015,stroop_test,2023.2.3,60.18317350039054,2024-03-11 18h11.58.407035 +0100,
test,blue,b,1,,,,,,,,,2,0,6,2,,,,,,,,,119.06538340006955,,,,,,,,,,,,,,,,,119.05131130001973,119.16528690000996,119.96503099997062,119.94897719996516,119.94900670007337,119.96503099997062,119.96503099997062,121.46638510003686,b,1,1.4932042999425903,None,,,,,,,,,,,,,,,,,,,,,,,,,,,,,,,,,,,,,,sub-864538,001,2024-03-11_18h11.51.015,stroop_test,2023.2.3,60.18317350039054,2024-03-11 18h11.58.407035 +0100,
test,yellow,g,1,,,,,,,,,2,1,7,1,,,,,,,,,121.48133670003153,,,,,,,,,,,,,,,,,121.4681728000287,122.68097250000574,123.48097639996558,123.46501050004736,123.4650404000422,123.48097639996558,123.48097639996558,125.08244340005331,g,1,1.5955942999571562,None,,,,,,,,,,,,,,,,,,,,,,,,,,,,,,,,,,,,,,sub-864538,001,2024-03-11_18h11.51.015,stroop_test,2023.2.3,60.18317350039054,2024-03-11 18h11.58.407035 +0100,
test,red,r,1,,,,,,,,,2,2,8,0,,,,,,,,,125.09695440006908,,,,,,,,,,,,,,,,,125.08357050002087,125.89719529997092,126.6970778000541,126.68121329997666,126.68124339997303,126.6970778000541,126.6970778000541,127.66499249998014,r,1,0.9593336000107229,None,,,,,,,,,,,,,,,,,,,,,,,,,,,,,,,,,,,,,,sub-864538,001,2024-03-11_18h11.51.015,stroop_test,2023.2.3,60.18317350039054,2024-03-11 18h11.58.407035 +0100,
test,red,r,1,,,,,,,,,3,0,9,0,,,,,,,,,127.67986999999266,,,,,,,,,,,,,,,,,127.66606670001056,128.029927900061,128.82991550001316,128.81397730007302,128.81400929996744,128.82991550001316,128.82991550001316,129.69773690006696,r,1,0.865570200025104,None,,,,,,,,,,,,,,,,,,,,,,,,,,,,,,,,,,,,,,sub-864538,001,2024-03-11_18h11.51.015,stroop_test,2023.2.3,60.18317350039054,2024-03-11 18h11.58.407035 +0100,
test,blue,b,1,,,,,,,,,3,1,10,2,,,,,,,,,129.71292550000362,,,,,,,,,,,,,,,,,129.6987769000698,130.91278829996008,131.71272099995986,131.69665389996953,131.69669600005727,131.71272099995986,131.71272099995986,132.6305823000148,b,1,0.9137412999989465,None,,,,,,,,,,,,,,,,,,,,,,,,,,,,,,,,,,,,,,sub-864538,001,2024-03-11_18h11.51.015,stroop_test,2023.2.3,60.18317350039054,2024-03-11 18h11.58.407035 +0100,
test,yellow,g,1,,,,,,,,,3,2,11,1,,,,,,,,,132.64553350000642,,,,,,,,,,,,,,,,,132.6317649000557,133.44545750005636,134.24533499998506,134.22945620003156,134.2294869000325,134.24533499998506,134.24533499998506,135.39632459997665,g,1,1.1471025000791997,None,,,,,,,,,,,,,,,,,,,,,,,,,,,,,,,,,,,,,,sub-864538,001,2024-03-11_18h11.51.015,stroop_test,2023.2.3,60.18317350039054,2024-03-11 18h11.58.407035 +0100,
,,,,,,,,,,,,,,,,,,,,,,,,,,,,,,,,,,,,,,,,,,,,,,,,,,,,,135.39707629999612,135.4116667000344,135.4116667000344,145.22803560004104,space,9.814831099938601,None,,,,,,,,,,,,,,,,,,,,,,,,,,,,,,,sub-864538,001,2024-03-11_18h11.51.015,stroop_test,2023.2.3,60.18317350039054,2024-03-11 18h11.58.407035 +0100,
,,,,gelb,yellow,g,1,,,,,,,,,0,0,0,11,,,,,145.31089500000235,,,,,,,,,,,,,,,,,145.30862799996976,146.0429390000645,146.84272159996908,146.82673480000813,,,,,,,,,,,,,,,,146.82676960004028,146.84272159996908,146.84272159996908,147.67722970002797,g,1,0.8283362999791279,None,147.67833650007378,147.69477010006085,148.69236540002748,,,,,,,,,,,,,,,,,,,,sub-864538,001,2024-03-11_18h11.51.015,stroop_test,2023.2.3,60.18317350039054,2024-03-11 18h11.58.407035 +0100,
,,,,rot,blue,b,0,,,,,,,,,0,1,1,2,,,,,148.70896870002616,,,,,,,,,,,,,,,,,148.6929917000234,149.49213210004382,150.29202240006998,150.2759844000684,,,,,,,,,,,,,,,,150.2760155000724,150.29202240006998,150.29202240006998,157.5251460999716,b,1,7.224491100059822,None,157.52599650004413,157.5400902000256,158.52424559998326,158.54029030003585,,,,,,,,,,,,,,,,,,,sub-864538,001,2024-03-11_18h11.51.015,stroop_test,2023.2.3,60.18317350039054,2024-03-11 18h11.58.407035 +0100,
,,,,gelb,yellow,g,1,,,,,,,,,0,2,2,10,,,,,158.54029030003585,,,,,,,,,,,,,,,,,158.52477310004178,158.8900491000386,159.68991660000756,159.6740262999665,,,,,,,,,,,,,,,,159.67405819997657,159.68991660000756,159.68991660000756,161.4404186999891,g,1,1.7335615999763831,None,161.44098980003037,161.45620300003793,162.44012210005894,162.4558820000384,,,,,,,,,,,,,,,,,,,sub-864538,001,2024-03-11_18h11.51.015,stroop_test,2023.2.3,60.18317350039054,2024-03-11 18h11.58.407035 +0100,
,,,,gelb,blue,b,0,,,,,,,,,0,3,3,9,,,,,162.4558820000384,,,,,,,,,,,,,,,,,162.4407041000668,162.55591170000844,163.3557518000016,163.34000630001538,,,,,,,,,,,,,,,,163.34003720001783,163.3557518000016,163.3557518000016,165.5067600000184,b,1,2.141967699979432,None,165.5073768000584,165.5218460999895,166.50588660000358,166.521696300013,,,,,,,,,,,,,,,,,,,sub-864538,001,2024-03-11_18h11.51.015,stroop_test,2023.2.3,60.18317350039054,2024-03-11 18h11.58.407035 +0100,
,,,,blau,yellow,g,0,,,,,,,,,0,4,4,7,,,,,166.521696300013,,,,,,,,,,,,,,,,,166.50665670004673,167.72136039996985,168.52129439997952,168.50581100001,,,,,,,,,,,,,,,,168.50584140000865,168.52129439997952,168.52129439997952,170.60541119996924,g,1,2.076639399980195,None,170.60611290007364,170.62076770002022,171.60489790001884,171.62066130002495,,,,,,,,,,,,,,,,,,,sub-864538,001,2024-03-11_18h11.51.015,stroop_test,2023.2.3,60.18317350039054,2024-03-11 18h11.58.407035 +0100,
,,,,gelb,red,r,0,,,,,,,,,0,5,5,8,,,,,171.62066130002495,,,,,,,,,,,,,,,,,171.60544329998083,171.7206154000014,172.52069050003774,172.50473170005716,,,,,,,,,,,,,,,,172.50476360006724,172.52069050003774,172.52069050003774,173.83821700001135,r,1,1.3077220000559464,None,173.8389672000194,173.85345080005936,174.83746850001626,174.8533052999992,,,,,,,,,,,,,,,,,,,sub-864538,001,2024-03-11_18h11.51.015,stroop_test,2023.2.3,60.18317350039054,2024-03-11 18h11.58.407035 +0100,
,,,,blau,blue,b,1,,,,,,,,,0,6,6,5,,,,,174.8533052999992,,,,,,,,,,,,,,,,,174.83800590003375,176.0529688000679,176.85284219996538,176.83703930000775,,,,,,,,,,,,,,,,176.83707060001325,176.85284219996538,176.85284219996538,179.58700920001138,b,1,2.7280768000055104,None,179.58763229998294,179.60216830007266,180.58637410006486,180.6020828000037,,,,,,,,,,,,,,,,,,,sub-864538,001,2024-03-11_18h11.51.015,stroop_test,2023.2.3,60.18317350039054,2024-03-11 18h11.58.407035 +0100,
,,,,blau,red,r,0,,,,,,,,,0,7,7,4,,,,,180.6020828000037,,,,,,,,,,,,,,,,,180.5869301999919,180.70203310006764,181.50204749999102,181.4864259000169,,,,,,,,,,,,,,,,181.48646030004602,181.50204749999102,181.50204749999102,182.85343859996647,r,1,1.349897899897769,None,182.8542956999736,182.86804420000408,183.85223169997334,183.86809060000814,,,,,,,,,,,,,,,,,,,sub-864538,001,2024-03-11_18h11.51.015,stroop_test,2023.2.3,60.18317350039054,2024-03-11 18h11.58.407035 +0100,
,,,,blau,blue,b,1,,,,,,,,,0,8,8,6,,,,,183.86809060000814,,,,,,,,,,,,,,,,,183.85273519996554,184.66791670001112,185.46778489998542,185.45175959996413,,,,,,,,,,,,,,,,185.4517901999643,185.46778489998542,185.46778489998542,186.40204299998004,b,1,0.9310311999870464,None,186.40275700006168,186.41740390006453,187.40147260006052,187.41736810002476,,,,,,,,,,,,,,,,,,,sub-864538,001,2024-03-11_18h11.51.015,stroop_test,2023.2.3,60.18317350039054,2024-03-11 18h11.58.407035 +0100,
,,,,rot,red,r,1,,,,,,,,,0,9,9,0,,,,,187.41736810002476,,,,,,,,,,,,,,,,,187.4019796999637,187.51736499997787,188.31705690000672,188.30156859999988,,,,,,,,,,,,,,,,188.30161179997958,188.31705690000672,188.31705690000672,191.18500499997754,r,1,2.865640699979849,None,191.18564320006408,191.20357220002916,192.1999820000492,,,,,,,,,,,,,,,,,,,,sub-864538,001,2024-03-11_18h11.51.015,stroop_test,2023.2.3,60.18317350039054,2024-03-11 18h11.58.407035 +0100,
,,,,rot,red,r,1,,,,,,,,,0,10,10,1,,,,,192.21636159997433,,,,,,,,,,,,,,,,,192.20054960006382,192.29977939999662,193.09957750001922,193.08369190001395,,,,,,,,,,,,,,,,193.0837228000164,193.09957750001922,193.09957750001922,193.91730239999015,r,1,0.8033765000291169,None,193.91797090007458,193.93245550000574,194.9165195999667,194.93263519997708,,,,,,,,,,,,,,,,,,,sub-864538,001,2024-03-11_18h11.51.015,stroop_test,2023.2.3,60.18317350039054,2024-03-11 18h11.58.407035 +0100,
,,,,rot,yellow,g,0,,,,,,,,,0,11,11,3,,,,,194.93263519997708,,,,,,,,,,,,,,,,,194.91703979996964,196.1321037999587,196.93220479995944,196.91605710005388,,,,,,,,,,,,,,,,196.91608800005633,196.93220479995944,196.93220479995944,198.11603520007338,g,1,1.1701096000615507,None,198.11669729999267,198.13156410004012,199.1157749000704,199.1315486000385,,,,,,,,,,,,,,,,,,,sub-864538,001,2024-03-11_18h11.51.015,stroop_test,2023.2.3,60.18317350039054,2024-03-11 18h11.58.407035 +0100,
,,,,rot,blue,b,0,,,,,,,,,1,0,12,2,,,,,199.1315486000385,,,,,,,,,,,,,,,,,199.11629530007485,199.4816568000242,200.28118679998443,200.265352300019,,,,,,,,,,,,,,,,200.2653844000306,200.28118679998443,200.28118679998443,201.64851620001718,b,1,1.3527678999816999,None,201.64916070003528,201.66425380005967,202.64817339996807,202.66415760002565,,,,,,,,,,,,,,,,,,,sub-864538,001,2024-03-11_18h11.51.015,stroop_test,2023.2.3,60.18317350039054,2024-03-11 18h11.58.407035 +0100,
,,,,gelb,blue,b,0,,,,,,,,,1,1,13,9,,,,,202.66415760002565,,,,,,,,,,,,,,,,,202.6486916000722,202.764023500029,203.563830900006,203.5482137000654,,,,,,,,,,,,,,,,203.54825800005347,203.563830900006,203.563830900006,205.64848660002463,b,1,2.0831916999304667,None,205.64917600003537,205.66328310000245,206.64786919998005,206.66332090005744,,,,,,,,,,,,,,,,,,,sub-864538,001,2024-03-11_18h11.51.015,stroop_test,2023.2.3,60.18317350039054,2024-03-11 18h11.58.407035 +0100,
,,,,gelb,yellow,g,1,,,,,,,,,1,2,14,11,,,,,206.66332090005744,,,,,,,,,,,,,,,,,206.64872090006247,207.01300779997837,207.8130674000131,207.79753149999306,,,,,,,,,,,,,,,,207.79757439997047,207.8130674000131,207.8130674000131,208.86380559997633,g,1,1.0350519999628887,None,208.8644274000544,208.87933580006938,209.86334330006503,209.87913650006521,,,,,,,,,,,,,,,,,,,sub-864538,001,2024-03-11_18h11.51.015,stroop_test,2023.2.3,60.18317350039054,2024-03-11 18h11.58.407035 +0100,
,,,,rot,red,r,1,,,,,,,,,1,3,15,0,,,,,209.87913650006521,,,,,,,,,,,,,,,,,209.86390070000198,211.07886330003385,211.8787134999875,211.86300360003952,,,,,,,,,,,,,,,,211.86303430004045,211.8787134999875,211.8787134999875,214.91350330004934,r,1,3.0282366999890655,None,214.91420650004875,214.92790989996865,215.91215740004554,215.92806720000226,,,,,,,,,,,,,,,,,,,sub-864538,001,2024-03-11_18h11.51.015,stroop_test,2023.2.3,60.18317350039054,2024-03-11 18h11.58.407035 +0100,
,,,,rot,red,r,1,,,,,,,,,1,4,16,1,,,,,215.92806720000226,,,,,,,,,,,,,,,,,215.91267850005534,216.27789180004038,217.07764729997143,217.0619378000265,,,,,,,,,,,,,,,,217.06196950003505,217.07764729997143,217.07764729997143,217.84549520001747,r,1,0.7597285000374541,None,217.84612050000578,217.8607530000154,218.84485940006562,218.8604269999778,,,,,,,,,,,,,,,,,,,sub-864538,001,2024-03-11_18h11.51.015,stroop_test,2023.2.3,60.18317350039054,2024-03-11 18h11.58.407035 +0100,
,,,,blau,blue,b,1,,,,,,,,,1,5,17,5,,,,,218.8604269999778,,,,,,,,,,,,,,,,,218.84542869997676,219.21073589997832,220.01036269997712,219.99461940000765,,,,,,,,,,,,,,,,219.99465080001391,220.01036269997712,220.01036269997712,220.94482189998962,b,1,0.9279357000486925,None,220.94555249996483,220.96000730001833,221.94420739996713,221.95992409996688,,,,,,,,,,,,,,,,,,,sub-864538,001,2024-03-11_18h11.51.015,stroop_test,2023.2.3,60.18317350039054,2024-03-11 18h11.58.407035 +0100,
,,,,gelb,yellow,g,1,,,,,,,,,1,6,18,10,,,,,221.95992409996688,,,,,,,,,,,,,,,,,221.9447374000447,222.30990280001424,223.1098433000734,223.09383759996854,,,,,,,,,,,,,,,,223.09386889997404,223.1098433000734,223.1098433000734,224.11076139996294,g,1,0.9943829999538139,None,224.1114649999654,224.1260903000366,225.11004519998096,225.1260358999716,,,,,,,,,,,,,,,,,,,sub-864538,001,2024-03-11_18h11.51.015,stroop_test,2023.2.3,60.18317350039054,2024-03-11 18h11.58.407035 +0100,
,,,,gelb,red,r,0,,,,,,,,,1,7,19,8,,,,,225.1260358999716,,,,,,,,,,,,,,,,,225.1105592000531,225.22607470001094,226.02598150004633,226.00987279997207,,,,,,,,,,,,,,,,226.0099037999753,226.02598150004633,226.02598150004633,227.30959119996987,r,1,1.2809231000719592,None,227.31020880001597,227.32524779997766,228.3095450999681,228.3251876999857,,,,,,,,,,,,,,,,,,,sub-864538,001,2024-03-11_18h11.51.015,stroop_test,2023.2.3,60.18317350039054,2024-03-11 18h11.58.407035 +0100,
,,,,rot,yellow,g,0,,,,,,,,,1,8,20,3,,,,,228.3251876999857,,,,,,,,,,,,,,,,,228.3101287999889,228.67513900005724,229.4751879000105,229.45908050006256,,,,,,,,,,,,,,,,229.4591109000612,229.4751879000105,229.4751879000105,230.92602020001505,b,0,1.4477534999605268,None,230.92665759997908,230.94113890000153,231.92577940004412,231.941242699977,,,,,,,,,,,,,,,,,,,sub-864538,001,2024-03-11_18h11.51.015,stroop_test,2023.2.3,60.18317350039054,2024-03-11 18h11.58.407035 +0100,
,,,,blau,red,r,0,,,,,,,,,1,9,21,4,,,,,231.941242699977,,,,,,,,,,,,,,,,,231.92634040000848,233.14091469999403,233.9406287999591,233.9258669000119,,,,,,,,,,,,,,,,233.92589880002197,233.9406287999591,233.9406287999591,235.69199229998048,r,1,1.741877399967052,None,235.69269130006433,235.70711179997306,236.69103270000778,236.70667530002538,,,,,,,,,,,,,,,,,,,sub-864538,001,2024-03-11_18h11.51.015,stroop_test,2023.2.3,60.18317350039054,2024-03-11 18h11.58.407035 +0100,
,,,,blau,yellow,g,0,,,,,,,,,1,10,22,7,,,,,236.70667530002538,,,,,,,,,,,,,,,,,236.69161500001792,236.80681380000897,237.60672839998733,237.5906554000685,,,,,,,,,,,,,,,,237.5906871999614,237.60672839998733,237.60672839998733,238.77466350002214,g,1,1.1658577000489458,None,238.7753063000273,238.78966080001555,239.7740046000108,239.78950720001012,,,,,,,,,,,,,,,,,,,sub-864538,001,2024-03-11_18h11.51.015,stroop_test,2023.2.3,60.18317350039054,2024-03-11 18h11.58.407035 +0100,
,,,,blau,blue,b,1,,,,,,,,,1,11,23,6,,,,,239.78950720001012,,,,,,,,,,,,,,,,,239.77452370000537,240.5893875999609,241.38919160002843,241.37340629997198,,,,,,,,,,,,,,,,241.37344340002164,241.38919160002843,241.38919160002843,243.52359370002523,b,1,2.1297356999712065,None,243.5243344999617,243.53843109996524,244.52282529999502,244.53845600003842,,,,,,,,,,,,,,,,,,,sub-864538,001,2024-03-11_18h11.51.015,stroop_test,2023.2.3,60.18317350039054,2024-03-11 18h11.58.407035 +0100,
,,,,,,,,,,,,,,,,,,,,,,,,,,,,,,,,,,,,,,,,,,,,,,,,,,,,,,,,,,,,,,,,,,,,,,,,244.5229558000574,244.53845600003842,244.53845600003842,254.38820549997035,space,9.841348699992523,None,,,,,,,,,,,,sub-864538,001,2024-03-11_18h11.51.015,stroop_test,2023.2.3,60.18317350039054,2024-03-11 18h11.58.407035 +0100,
,,,,,,,,rot,blue,b,0,,,,,,,,,0,0,0,2,254.40855429996736,,,,,,,,,,,,,,,,,254.40551980002783,255.60292710002977,256.40263190004043,256.38668160000816,,,,,,,,,,,,,,,,,,,,,,,,,,,,,,,,,,,256.3867118000053,256.40263190004043,256.40263190004043,258.786190600018,b,1,2.3678142999997362,None,,,,sub-864538,001,2024-03-11_18h11.51.015,stroop_test,2023.2.3,60.18317350039054,2024-03-11 18h11.58.407035 +0100,
,,,,,,,,rot,red,r,1,,,,,,,,,0,1,1,0,258.8020886000013,,,,,,,,,,,,,,,,,258.7876561000012,260.00194730004296,260.8017319999635,260.78595399996266,,,,,,,,,,,,,,,,,,,,,,,,,,,,,,,,,,,260.785995000042,260.8017319999635,260.8017319999635,262.4359753000317,r,1,1.6257260999409482,None,,,,sub-864538,001,2024-03-11_18h11.51.015,stroop_test,2023.2.3,60.18317350039054,2024-03-11 18h11.58.407035 +0100,
,,,,,,,,gelb,blue,b,0,,,,,,,,,0,2,2,9,262.4513161999639,,,,,,,,,,,,,,,,,262.43739169999026,263.65105720004067,264.45102350006346,264.4351453999989,,,,,,,,,,,,,,,,,,,,,,,,,,,,,,,,,,,264.43517680000514,264.45102350006346,264.45102350006346,266.3186676000478,b,1,1.858931399998255,None,,,,sub-864538,001,2024-03-11_18h11.51.015,stroop_test,2023.2.3,60.18317350039054,2024-03-11 18h11.58.407035 +0100,
,,,,,,,,blau,yellow,g,0,,,,,,,,,0,3,3,7,266.3336139000021,,,,,,,,,,,,,,,,,266.3201325000264,266.43403210002,267.23378210002556,267.2178633000003,,,,,,,,,,,,,,,,,,,,,,,,,,,,,,,,,,,267.21789530001115,267.23378210002556,267.23378210002556,268.4180295000551,g,1,1.1753703999565914,None,,,,sub-864538,001,2024-03-11_18h11.51.015,stroop_test,2023.2.3,60.18317350039054,2024-03-11 18h11.58.407035 +0100,
,,,,,,,,rot,red,r,1,,,,,,,,,0,4,4,1,268.43314810004085,,,,,,,,,,,,,,,,,268.4192155000055,269.63306979998015,270.43298300006427,270.41693860001396,,,,,,,,,,,,,,,,,,,,,,,,,,,,,,,,,,,270.416978299967,270.43298300006427,270.43298300006427,271.7674246999668,r,1,1.3230425000656396,None,,,,sub-864538,001,2024-03-11_18h11.51.015,stroop_test,2023.2.3,60.18317350039054,2024-03-11 18h11.58.407035 +0100,
,,,,,,,,gelb,yellow,g,1,,,,,,,,,0,5,5,11,271.78252290003,,,,,,,,,,,,,,,,,271.7687249999726,271.8827233000193,272.68266369996127,272.6666404000716,,,,,,,,,,,,,,,,,,,,,,,,,,,,,,,,,,,272.66667159995995,272.68266369996127,272.68266369996127,273.4502690000227,g,1,0.761563399923034,None,,,,sub-864538,001,2024-03-11_18h11.51.015,stroop_test,2023.2.3,60.18317350039054,2024-03-11 18h11.58.407035 +0100,
,,,,,,,,rot,yellow,g,0,,,,,,,,,0,6,6,3,273.46554190001916,,,,,,,,,,,,,,,,,273.4514035000466,274.66540030005854,275.4651401999872,275.44945429998916,,,,,,,,,,,,,,,,,,,,,,,,,,,,,,,,,,,275.4494851999916,275.4651401999872,275.4651401999872,277.883051999961,g,1,2.4132037999806926,None,,,,sub-864538,001,2024-03-11_18h11.51.015,stroop_test,2023.2.3,60.18317350039054,2024-03-11 18h11.58.407035 +0100,
,,,,,,,,gelb,yellow,g,1,,,,,,,,,0,7,7,10,277.8979035000084,,,,,,,,,,,,,,,,,277.884216299979,278.2479067000095,279.0478818999836,279.03186149999965,,,,,,,,,,,,,,,,,,,,,,,,,,,,,,,,,,,279.03189230000135,279.0478818999836,279.0478818999836,279.69921940006316,g,1,0.6439670000690967,None,,,,sub-864538,001,2024-03-11_18h11.51.015,stroop_test,2023.2.3,60.18317350039054,2024-03-11 18h11.58.407035 +0100,
,,,,,,,,blau,blue,b,1,,,,,,,,,0,8,8,5,279.71408940001857,,,,,,,,,,,,,,,,,279.70035749999806,280.91406390001066,281.7139062000206,281.6980942999944,,,,,,,,,,,,,,,,,,,,,,,,,,,,,,,,,,,281.69813040003646,281.7139062000206,281.7139062000206,283.13155290007126,b,1,1.4147456999635324,None,,,,sub-864538,001,2024-03-11_18h11.51.015,stroop_test,2023.2.3,60.18317350039054,2024-03-11 18h11.58.407035 +0100,
,,,,,,,,blau,red,r,0,,,,,,,,,0,9,9,4,283.1467010000488,,,,,,,,,,,,,,,,,283.1327388000209,283.2468920999672,284.0467071000021,284.0308901000535,,,,,,,,,,,,,,,,,,,,,,,,,,,,,,,,,,,284.0309212000575,284.0467071000021,284.0467071000021,285.49770010006614,r,1,1.446566900005564,None,,,,sub-864538,001,2024-03-11_18h11.51.015,stroop_test,2023.2.3,60.18317350039054,2024-03-11 18h11.58.407035 +0100,
,,,,,,,,blau,blue,b,1,,,,,,,,,0,10,10,6,285.5129580000648,,,,,,,,,,,,,,,,,285.4988461000612,286.7128409000579,287.5127039999934,287.4969612000277,,,,,,,,,,,,,,,,,,,,,,,,,,,,,,,,,,,287.4969923000317,287.5127039999934,287.5127039999934,288.5307128999848,b,1,1.0122561999596655,None,,,,sub-864538,001,2024-03-11_18h11.51.015,stroop_test,2023.2.3,60.18317350039054,2024-03-11 18h11.58.407035 +0100,
,,,,,,,,gelb,red,r,0,,,,,,,,,0,11,11,8,288.5457702999702,,,,,,,,,,,,,,,,,288.53214070003014,289.34562440006994,290.1453740000725,290.12968620005995,,,,,,,,,,,,,,,,,,,,,,,,,,,,,,,,,,,290.12971730006393,290.1453740000725,290.1453740000725,291.6130352000473,r,1,1.456027999985963,None,,,,sub-864538,001,2024-03-11_18h11.51.015,stroop_test,2023.2.3,60.18317350039054,2024-03-11 18h11.58.407035 +0100,
,,,,,,,,gelb,blue,b,0,,,,,,,,,1,0,12,9,291.6281903999625,,,,,,,,,,,,,,,,,291.6144788999809,291.97838720004074,292.77824170002714,292.7623767000623,,,,,,,,,,,,,,,,,,,,,,,,,,,,,,,,,,,292.76240790006705,292.77824170002714,292.77824170002714,294.34603750007227,b,1,1.5591011999640614,None,,,,sub-864538,001,2024-03-11_18h11.51.015,stroop_test,2023.2.3,60.18317350039054,2024-03-11 18h11.58.407035 +0100,
,,,,,,,,rot,yellow,g,0,,,,,,,,,1,1,13,3,294.36120719998144,,,,,,,,,,,,,,,,,294.34720980003476,295.1611164000351,295.96100720006507,295.9446963999653,,,,,,,,,,,,,,,,,,,,,,,,,,,,,,,,,,,295.9447369000409,295.96100720006507,295.96100720006507,297.0456053999951,g,1,1.083092899993062,None,,,,sub-864538,001,2024-03-11_18h11.51.015,stroop_test,2023.2.3,60.18317350039054,2024-03-11 18h11.58.407035 +0100,
,,,,,,,,rot,blue,b,0,,,,,,,,,1,2,14,2,297.06040189997293,,,,,,,,,,,,,,,,,297.0467684000032,298.2604507000651,299.06026970001403,299.04449720005505,,,,,,,,,,,,,,,,,,,,,,,,,,,,,,,,,,,299.044528300059,299.06026970001403,299.06026970001403,300.22784900001716,b,1,1.1633224999532104,None,,,,sub-864538,001,2024-03-11_18h11.51.015,stroop_test,2023.2.3,60.18317350039054,2024-03-11 18h11.58.407035 +0100,
,,,,,,,,gelb,yellow,g,1,,,,,,,,,1,3,15,10,300.2431254000403,,,,,,,,,,,,,,,,,300.2290119000245,301.4429406999843,302.2429223000072,302.2268388000084,,,,,,,,,,,,,,,,,,,,,,,,,,,,,,,,,,,302.2268720000284,302.2429223000072,302.2429223000072,303.11036110005807,g,1,0.8567595999920741,None,,,,sub-864538,001,2024-03-11_18h11.51.015,stroop_test,2023.2.3,60.18317350039054,2024-03-11 18h11.58.407035 +0100,
,,,,,,,,blau,red,r,0,,,,,,,,,1,4,16,4,303.1257940999931,,,,,,,,,,,,,,,,,303.1113154999912,303.2258143000072,304.0255679000402,304.0095850999933,,,,,,,,,,,,,,,,,,,,,,,,,,,,,,,,,,,304.0096203000285,304.0255679000402,304.0255679000402,305.3760800999589,r,1,1.3487736999522895,None,,,,sub-864538,001,2024-03-11_18h11.51.015,stroop_test,2023.2.3,60.18317350039054,2024-03-11 18h11.58.407035 +0100,
,,,,,,,,rot,red,r,1,,,,,,,,,1,5,17,0,305.3920301999897,,,,,,,,,,,,,,,,,305.3766200999962,305.7254011000041,306.5253297999734,306.5095238999929,,,,,,,,,,,,,,,,,,,,,,,,,,,,,,,,,,,306.5095576000167,306.5253297999734,306.5253297999734,307.7594495000085,r,1,1.2236758000217378,None,,,,sub-864538,001,2024-03-11_18h11.51.015,stroop_test,2023.2.3,60.18317350039054,2024-03-11 18h11.58.407035 +0100,
,,,,,,,,blau,blue,b,1,,,,,,,,,1,6,18,6,307.77453900000546,,,,,,,,,,,,,,,,,307.76067860005423,307.87485450005624,308.67453169997316,308.6587115000002,,,,,,,,,,,,,,,,,,,,,,,,,,,,,,,,,,,308.65874370001256,308.67453169997316,308.67453169997316,310.34259260003455,b,1,1.66576470003929,None,,,,sub-864538,001,2024-03-11_18h11.51.015,stroop_test,2023.2.3,60.18317350039054,2024-03-11 18h11.58.407035 +0100,
,,,,,,,,blau,blue,b,1,,,,,,,,,1,7,19,5,310.3576019000029,,,,,,,,,,,,,,,,,310.343807999976,311.15758960007224,311.95758140005637,311.9414652000414,,,,,,,,,,,,,,,,,,,,,,,,,,,,,,,,,,,311.9414960000431,311.95758140005637,311.95758140005637,312.6755745999981,b,1,0.7119863999541849,None,,,,sub-864538,001,2024-03-11_18h11.51.015,stroop_test,2023.2.3,60.18317350039054,2024-03-11 18h11.58.407035 +0100,
,,,,,,,,gelb,red,r,0,,,,,,,,,1,8,20,8,312.690492899972,,,,,,,,,,,,,,,,,312.6768857999705,312.790629300056,313.5903243999928,313.5746883000247,,,,,,,,,,,,,,,,,,,,,,,,,,,,,,,,,,,313.57472160004545,313.5903243999928,313.5903243999928,315.57474020007066,r,1,1.981082900078036,None,,,,sub-864538,001,2024-03-11_18h11.51.015,stroop_test,2023.2.3,60.18317350039054,2024-03-11 18h11.58.407035 +0100,
,,,,,,,,blau,yellow,g,0,,,,,,,,,1,9,21,7,315.5900280000642,,,,,,,,,,,,,,,,,315.57588220003527,315.9399165000068,316.73987150005996,316.7240041999612,,,,,,,,,,,,,,,,,,,,,,,,,,,,,,,,,,,316.72403489996213,316.73987150005996,316.73987150005996,317.7575822999934,g,1,1.0156216999748722,None,,,,sub-864538,001,2024-03-11_18h11.51.015,stroop_test,2023.2.3,60.18317350039054,2024-03-11 18h11.58.407035 +0100,
,,,,,,,,rot,red,r,1,,,,,,,,,1,10,22,1,317.77280809998047,,,,,,,,,,,,,,,,,317.7587615000084,317.87285889999475,318.67275759996846,318.656793900067,,,,,,,,,,,,,,,,,,,,,,,,,,,,,,,,,,,318.6568246000679,318.67275759996846,318.67275759996846,319.59098310000263,r,1,0.9157342999242246,None,,,,sub-864538,001,2024-03-11_18h11.51.015,stroop_test,2023.2.3,60.18317350039054,2024-03-11 18h11.58.407035 +0100,
,,,,,,,,gelb,yellow,g,1,,,,,,,,,1,11,23,11,319.60563730006106,,,,,,,,,,,,,,,,,319.5920804999769,319.70582110004034,320.5056673999643,320.48976799997035,,,,,,,,,,,,,,,,,,,,,,,,,,,,,,,,,,,320.4898041000124,320.5056673999643,320.5056673999643,321.22408169996925,g,1,0.7169311000034213,None,,,,sub-864538,001,2024-03-11_18h11.51.015,stroop_test,2023.2.3,60.18317350039054,2024-03-11 18h11.58.407035 +0100,
,,,,,,,,rot,red,r,1,,,,,,,,,2,0,24,0,321.23859369999263,,,,,,,,,,,,,,,,,321.225279700011,322.43869290000293,323.2384997999761,323.2224532000255,,,,,,,,,,,,,,,,,,,,,,,,,,,,,,,,,,,323.2224839000264,323.2384997999761,323.2384997999761,324.0727008000249,r,1,0.8247275999747217,None,,,,sub-864538,001,2024-03-11_18h11.51.015,stroop_test,2023.2.3,60.18317350039054,2024-03-11 18h11.58.407035 +0100,
,,,,,,,,gelb,red,r,0,,,,,,,,,2,1,25,8,324.08806249999907,,,,,,,,,,,,,,,,,324.07386550004594,324.18818419997115,324.9880960000446,324.9725005000364,,,,,,,,,,,,,,,,,,,,,,,,,,,,,,,,,,,324.9725354000693,324.9880960000446,324.9880960000446,326.38917910004966,r,1,1.3905244000488892,None,,,,sub-864538,001,2024-03-11_18h11.51.015,stroop_test,2023.2.3,60.18317350039054,2024-03-11 18h11.58.407035 +0100,
,,,,,,,,blau,yellow,g,0,,,,,,,,,2,2,26,7,326.4043866000138,,,,,,,,,,,,,,,,,326.3905136999674,326.50435269996524,327.3041543000145,327.2884158999659,,,,,,,,,,,,,,,,,,,,,,,,,,,,,,,,,,,327.2884497999912,327.3041543000145,327.3041543000145,328.55515949998517,g,1,1.2484384999843314,None,,,,sub-864538,001,2024-03-11_18h11.51.015,stroop_test,2023.2.3,60.18317350039054,2024-03-11 18h11.58.407035 +0100,
,,,,,,,,gelb,blue,b,0,,,,,,,,,2,3,27,9,328.57045110000763,,,,,,,,,,,,,,,,,328.5563495999668,328.67056730005424,329.47035810002126,329.4544825999765,,,,,,,,,,,,,,,,,,,,,,,,,,,,,,,,,,,329.4545129999751,329.47035810002126,329.47035810002126,330.3882536999881,b,1,0.9067885000258684,None,,,,sub-864538,001,2024-03-11_18h11.51.015,stroop_test,2023.2.3,60.18317350039054,2024-03-11 18h11.58.407035 +0100,
,,,,,,,,blau,blue,b,1,,,,,,,,,2,4,28,6,330.4034205999924,,,,,,,,,,,,,,,,,330.3893823999679,331.2034406000748,332.0032392999856,331.98738309997134,,,,,,,,,,,,,,,,,,,,,,,,,,,,,,,,,,,331.9874144999776,332.0032392999856,332.0032392999856,333.23751969996374,b,1,1.2298780999844894,None,,,,sub-864538,001,2024-03-11_18h11.51.015,stroop_test,2023.2.3,60.18317350039054,2024-03-11 18h11.58.407035 +0100,
,,,,,,,,blau,red,r,0,,,,,,,,,2,5,29,4,333.25267690001056,,,,,,,,,,,,,,,,,333.23865990003105,334.45276010001544,335.2525028999662,335.2367788000265,,,,,,,,,,,,,,,,,,,,,,,,,,,,,,,,,,,335.23680900002364,335.2525028999662,335.2525028999662,336.2204110000748,r,1,0.9567008999874815,None,,,,sub-864538,001,2024-03-11_18h11.51.015,stroop_test,2023.2.3,60.18317350039054,2024-03-11 18h11.58.407035 +0100,
,,,,,,,,blau,blue,b,1,,,,,,,,,2,6,30,5,336.2355185999768,,,,,,,,,,,,,,,,,336.2216030000709,337.4353953000391,338.23517930007074,338.21954910003114,,,,,,,,,,,,,,,,,,,,,,,,,,,,,,,,,,,338.21958220005035,338.23517930007074,338.23517930007074,339.686219300027,b,1,1.4463130000513047,None,,,,sub-864538,001,2024-03-11_18h11.51.015,stroop_test,2023.2.3,60.18317350039054,2024-03-11 18h11.58.407035 +0100,
,,,,,,,,gelb,yellow,g,1,,,,,,,,,2,7,31,11,339.70138940005563,,,,,,,,,,,,,,,,,339.68742360000033,339.7850352000678,340.5848413000349,340.5688016000204,,,,,,,,,,,,,,,,,,,,,,,,,,,,,,,,,,,340.56883170001674,340.5848413000349,340.5848413000349,341.7362251000013,g,1,1.1500327999237925,None,,,,sub-864538,001,2024-03-11_18h11.51.015,stroop_test,2023.2.3,60.18317350039054,2024-03-11 18h11.58.407035 +0100,
,,,,,,,,gelb,yellow,g,1,,,,,,,,,2,8,32,10,341.7510116000194,,,,,,,,,,,,,,,,,341.73730929999147,342.10100410005543,342.90089369995985,342.8854921000311,,,,,,,,,,,,,,,,,,,,,,,,,,,,,,,,,,,342.88554140005726,342.90089369995985,342.90089369995985,343.46859669999685,g,1,0.5582159999758005,None,,,,sub-864538,001,2024-03-11_18h11.51.015,stroop_test,2023.2.3,60.18317350039054,2024-03-11 18h11.58.407035 +0100,
,,,,,,,,rot,yellow,g,0,,,,,,,,,2,9,33,3,343.48420329997316,,,,,,,,,,,,,,,,,343.46974420000333,343.58426210004836,344.38397900003474,344.3680835000705,,,,,,,,,,,,,,,,,,,,,,,,,,,,,,,,,,,344.36812660004944,344.38397900003474,344.38397900003474,345.28511910000816,g,1,0.8881819999078289,None,,,,sub-864538,001,2024-03-11_18h11.51.015,stroop_test,2023.2.3,60.18317350039054,2024-03-11 18h11.58.407035 +0100,
,,,,,,,,rot,blue,b,0,,,,,,,,,2,10,34,2,345.30031019996386,,,,,,,,,,,,,,,,,345.28627479996067,346.5001818999881,347.3000823999755,347.2842715000734,,,,,,,,,,,,,,,,,,,,,,,,,,,,,,,,,,,347.28430000005756,347.3000823999755,347.3000823999755,348.78442499996163,b,1,1.4798577999463305,None,,,,sub-864538,001,2024-03-11_18h11.51.015,stroop_test,2023.2.3,60.18317350039054,2024-03-11 18h11.58.407035 +0100,
,,,,,,,,rot,red,r,1,,,,,,,,,2,11,35,1,348.79948310006876,,,,,,,,,,,,,,,,,348.7855860000709,349.99935279996134,350.79913930001203,350.7833314000163,,,,,,,,,,,,,,,,,,,,,,,,,,,,,,,,,,,350.78336340002716,350.79913930001203,350.79913930001203,351.7169614000013,r,1,0.9122172999195755,None,,,,sub-864538,001,2024-03-11_18h11.51.015,stroop_test,2023.2.3,60.18317350039054,2024-03-11 18h11.58.407035 +0100,
,,,,,,,,rot,blue,b,0,,,,,,,,,3,0,36,2,351.7322779999813,,,,,,,,,,,,,,,,,351.7183359999908,352.08229349995963,352.882135199965,352.86617160006426,,,,,,,,,,,,,,,,,,,,,,,,,,,,,,,,,,,352.86620320007205,352.882135199965,352.882135199965,354.18315020005684,b,1,1.2843040999723598,None,,,,sub-864538,001,2024-03-11_18h11.51.015,stroop_test,2023.2.3,60.18317350039054,2024-03-11 18h11.58.407035 +0100,
,,,,,,,,rot,red,r,1,,,,,,,,,3,1,37,1,354.19845620007254,,,,,,,,,,,,,,,,,354.18464850005694,354.29852070007473,355.09836060006637,355.08239280001726,,,,,,,,,,,,,,,,,,,,,,,,,,,,,,,,,,,355.0824230000144,355.09836060006637,355.09836060006637,355.9495462999912,r,1,0.8467377000488341,None,,,,sub-864538,001,2024-03-11_18h11.51.015,stroop_test,2023.2.3,60.18317350039054,2024-03-11 18h11.58.407035 +0100,
,,,,,,,,gelb,yellow,g,1,,,,,,,,,3,2,38,10,355.9645877999719,,,,,,,,,,,,,,,,,355.9508562000701,356.7646225000499,357.5644433000125,357.548753799987,,,,,,,,,,,,,,,,,,,,,,,,,,,,,,,,,,,357.5487851999933,357.5644433000125,357.5644433000125,358.36516000004485,g,1,0.7859454000135884,None,,,,sub-864538,001,2024-03-11_18h11.51.015,stroop_test,2023.2.3,60.18317350039054,2024-03-11 18h11.58.407035 +0100,
,,,,,,,,blau,yellow,g,0,,,,,,,,,3,3,39,7,358.38096870004665,,,,,,,,,,,,,,,,,358.36624300002586,359.1806033999892,359.98070119996555,359.9647446000017,,,,,,,,,,,,,,,,,,,,,,,,,,,,,,,,,,,359.96477770002093,359.98070119996555,359.98070119996555,360.94825100002345,g,1,0.9594113999046385,None,,,,sub-864538,001,2024-03-11_18h11.51.015,stroop_test,2023.2.3,60.18317350039054,2024-03-11 18h11.58.407035 +0100,
,,,,,,,,rot,yellow,g,0,,,,,,,,,3,4,40,3,360.9634322000202,,,,,,,,,,,,,,,,,360.9495704000583,361.06367010006215,361.8634975999594,361.8477716000052,,,,,,,,,,,,,,,,,,,,,,,,,,,,,,,,,,,361.84781239996664,361.8634975999594,361.8634975999594,362.6818681000732,g,1,0.8056432000594214,None,,,,sub-864538,001,2024-03-11_18h11.51.015,stroop_test,2023.2.3,60.18317350039054,2024-03-11 18h11.58.407035 +0100,
,,,,,,,,blau,blue,b,1,,,,,,,,,3,5,41,5,362.69639030005783,,,,,,,,,,,,,,,,,362.6832114000572,363.89633290003985,364.69627790001687,364.68072000006214,,,,,,,,,,,,,,,,,,,,,,,,,,,,,,,,,,,364.68075489997864,364.69627790001687,364.69627790001687,365.36403040005825,b,1,0.6588910999707878,None,,,,sub-864538,001,2024-03-11_18h11.51.015,stroop_test,2023.2.3,60.18317350039054,2024-03-11 18h11.58.407035 +0100,
,,,,,,,,blau,blue,b,1,,,,,,,,,3,6,42,6,365.3791785000358,,,,,,,,,,,,,,,,,365.3652263999684,366.57931469997857,367.3789405999705,367.3632215000689,,,,,,,,,,,,,,,,,,,,,,,,,,,,,,,,,,,367.3632535999641,367.3789405999705,367.3789405999705,367.9634887999855,b,1,0.5761129000457004,None,,,,sub-864538,001,2024-03-11_18h11.51.015,stroop_test,2023.2.3,60.18317350039054,2024-03-11 18h11.58.407035 +0100,
,,,,,,,,gelb,red,r,0,,,,,,,,,3,7,43,8,367.9787275000708,,,,,,,,,,,,,,,,,367.9646614000667,369.1785379999783,369.9785899000708,369.96253300004173,,,,,,,,,,,,,,,,,,,,,,,,,,,,,,,,,,,369.9625720999902,369.9785899000708,369.9785899000708,370.69589970004745,r,1,0.7018747999100015,None,,,,sub-864538,001,2024-03-11_18h11.51.015,stroop_test,2023.2.3,60.18317350039054,2024-03-11 18h11.58.407035 +0100,
,,,,,,,,rot,red,r,1,,,,,,,,,3,8,44,0,370.71159630001057,,,,,,,,,,,,,,,,,370.6970518999733,371.0615411000326,371.86131870001554,371.84556980000343,,,,,,,,,,,,,,,,,,,,,,,,,,,,,,,,,,,371.8456002000021,371.86131870001554,371.86131870001554,372.4626433000667,r,1,0.5879589000251144,None,,,,sub-864538,001,2024-03-11_18h11.51.015,stroop_test,2023.2.3,60.18317350039054,2024-03-11 18h11.58.407035 +0100,
,,,,,,,,gelb,blue,b,0,,,,,,,,,3,9,45,9,372.4777775000548,,,,,,,,,,,,,,,,,372.4638366000727,373.6776583000319,374.47741900000256,374.4617496000137,,,,,,,,,,,,,,,,,,,,,,,,,,,,,,,,,,,374.46178030001465,374.47741900000256,374.47741900000256,375.4283144000219,b,1,0.9443104999372736,None,,,,sub-864538,001,2024-03-11_18h11.51.015,stroop_test,2023.2.3,60.18317350039054,2024-03-11 18h11.58.407035 +0100,
,,,,,,,,blau,red,r,0,,,,,,,,,3,10,46,4,375.4433734000195,,,,,,,,,,,,,,,,,375.4294869999867,375.5435628000414,376.34365539997816,376.3275975000579,,,,,,,,,,,,,,,,,,,,,,,,,,,,,,,,,,,376.327629800071,376.34365539997816,376.34365539997816,377.19555020006374,r,1,0.8502093000570312,None,,,,sub-864538,001,2024-03-11_18h11.51.015,stroop_test,2023.2.3,60.18317350039054,2024-03-11 18h11.58.407035 +0100,
,,,,,,,,gelb,yellow,g,1,,,,,,,,,3,11,47,11,377.21011440001894,,,,,,,,,,,,,,,,,377.1967379000271,378.409953400027,379.20993640006054,379.1939834000077,,,,,,,,,,,,,,,,,,,,,,,,,,,,,,,,,,,379.1940140000079,379.20993640006054,379.20993640006054,379.8611283999635,g,1,0.6460295000579208,None,,,,sub-864538,001,2024-03-11_18h11.51.015,stroop_test,2023.2.3,60.18317350039054,2024-03-11 18h11.58.407035 +0100,
,,,,,,,,gelb,red,r,0,,,,,,,,,4,0,48,8,379.87620890000835,,,,,,,,,,,,,,,,,379.86231630004477,380.22620769997593,381.026217799983,381.01016700000037,,,,,,,,,,,,,,,,,,,,,,,,,,,,,,,,,,,381.0101974999998,381.026217799983,381.026217799983,381.8441744999727,r,1,0.8082567000528798,None,,,,sub-864538,001,2024-03-11_18h11.51.015,stroop_test,2023.2.3,60.18317350039054,2024-03-11 18h11.58.407035 +0100,
,,,,,,,,gelb,blue,b,0,,,,,,,,,4,1,49,9,381.8589925999986,,,,,,,,,,,,,,,,,381.8454814000288,382.2093274999643,383.00913909997325,382.99321039998904,,,,,,,,,,,,,,,,,,,,,,,,,,,,,,,,,,,382.99325669999234,383.00913909997325,383.00913909997325,383.8102324999636,b,1,0.7948800000594929,None,,,,sub-864538,001,2024-03-11_18h11.51.015,stroop_test,2023.2.3,60.18317350039054,2024-03-11 18h11.58.407035 +0100,
,,,,,,,,gelb,yellow,g,1,,,,,,,,,4,2,50,11,383.8254232000327,,,,,,,,,,,,,,,,,383.8113780000713,383.9284013999859,384.741931400029,384.7260807000566,,,,,,,,,,,,,,,,,,,,,,,,,,,,,,,,,,,384.7261118000606,384.741931400029,384.741931400029,385.61016839998774,g,1,0.865679300040938,None,,,,sub-864538,001,2024-03-11_18h11.51.015,stroop_test,2023.2.3,60.18317350039054,2024-03-11 18h11.58.407035 +0100,
,,,,,,,,rot,blue,b,0,,,,,,,,,4,3,51,2,385.62491969997063,,,,,,,,,,,,,,,,,385.61170909996144,386.8249354000436,387.6248200000264,387.6089489000151,,,,,,,,,,,,,,,,,,,,,,,,,,,,,,,,,,,387.60897900001146,387.6248200000264,387.6248200000264,388.70930300001055,b,1,1.080074799945578,None,,,,sub-864538,001,2024-03-11_18h11.51.015,stroop_test,2023.2.3,60.18317350039054,2024-03-11 18h11.58.407035 +0100,
,,,,,,,,blau,yellow,g,0,,,,,,,,,4,4,52,7,388.7242583000334,,,,,,,,,,,,,,,,,388.7104674000293,389.9242022000253,390.7241904999828,390.708323800005,,,,,,,,,,,,,,,,,,,,,,,,,,,,,,,,,,,390.7083638999611,390.7241904999828,390.7241904999828,391.59272449999116,g,1,0.8667759000090882,None,,,,sub-864538,001,2024-03-11_18h11.51.015,stroop_test,2023.2.3,60.18317350039054,2024-03-11 18h11.58.407035 +0100,
,,,,,,,,gelb,yellow,g,1,,,,,,,,,4,5,53,10,391.6070960999932,,,,,,,,,,,,,,,,,391.5939505000133,391.9571210000431,392.75686960003804,392.74110880005173,,,,,,,,,,,,,,,,,,,,,,,,,,,,,,,,,,,392.74113960005343,392.75686960003804,392.75686960003804,393.3415081000421,g,1,0.5824560000328347,None,,,,sub-864538,001,2024-03-11_18h11.51.015,stroop_test,2023.2.3,60.18317350039054,2024-03-11 18h11.58.407035 +0100,
,,,,,,,,rot,red,r,1,,,,,,,,,4,6,54,1,393.35657130007166,,,,,,,,,,,,,,,,,393.34267020004336,394.1567442000378,394.95647560001817,394.9411907000467,,,,,,,,,,,,,,,,,,,,,,,,,,,,,,,,,,,394.941259299987,394.95647560001817,394.95647560001817,395.7741951000644,r,1,0.8081225999630988,None,,,,sub-864538,001,2024-03-11_18h11.51.015,stroop_test,2023.2.3,60.18317350039054,2024-03-11 18h11.58.407035 +0100,
,,,,,,,,rot,yellow,g,0,,,,,,,,,4,7,55,3,395.78947119996883,,,,,,,,,,,,,,,,,395.7754566000076,395.88971779996064,396.68950630002655,396.6736388000427,,,,,,,,,,,,,,,,,,,,,,,,,,,,,,,,,,,396.67367899999954,396.68950630002655,396.68950630002655,397.7572417999618,g,1,1.058570699999109,None,,,,sub-864538,001,2024-03-11_18h11.51.015,stroop_test,2023.2.3,60.18317350039054,2024-03-11 18h11.58.407035 +0100,
,,,,,,,,rot,red,r,1,,,,,,,,,4,8,56,0,397.77230850001797,,,,,,,,,,,,,,,,,397.7583938000025,398.5724979999941,399.3721724000061,399.3563936999999,,,,,,,,,,,,,,,,,,,,,,,,,,,,,,,,,,,399.35642440000083,399.3721724000061,399.3721724000061,400.0240131999599,r,1,0.6461326000280678,None,,,,sub-864538,001,2024-03-11_18h11.51.015,stroop_test,2023.2.3,60.18317350039054,2024-03-11 18h11.58.407035 +0100,
,,,,,,,,blau,blue,b,1,,,,,,,,,4,9,57,6,400.03886830003466,,,,,,,,,,,,,,,,,400.02509610005654,400.83852520002984,401.63828940002713,401.62252360000275,,,,,,,,,,,,,,,,,,,,,,,,,,,,,,,,,,,401.62255460000597,401.63828940002713,401.63828940002713,402.3896511000348,b,1,0.7339405999518931,None,,,,sub-864538,001,2024-03-11_18h11.51.015,stroop_test,2023.2.3,60.18317350039054,2024-03-11 18h11.58.407035 +0100,
,,,,,,,,blau,blue,b,1,,,,,,,,,4,10,58,5,402.4049615999684,,,,,,,,,,,,,,,,,402.39084840007126,403.6045874999836,404.40449750004336,404.38861670007464,,,,,,,,,,,,,,,,,,,,,,,,,,,,,,,,,,,404.3886479999637,404.40449750004336,404.40449750004336,405.30585290002637,b,1,0.8949749000603333,None,,,,sub-864538,001,2024-03-11_18h11.51.015,stroop_test,2023.2.3,60.18317350039054,2024-03-11 18h11.58.407035 +0100,
,,,,,,,,blau,red,r,0,,,,,,,,,4,11,59,4,405.3208369000349,,,,,,,,,,,,,,,,,405.30712740006857,405.42077970004175,406.2207138000522,406.2049551999662,,,,,,,,,,,,,,,,,,,,,,,,,,,,,,,,,,,406.2049864999717,406.2207138000522,406.2207138000522,407.0385626000352,r,1,0.8120946000562981,None,,,,sub-864538,001,2024-03-11_18h11.51.015,stroop_test,2023.2.3,60.18317350039054,2024-03-11 18h11.58.407035 +0100,
,,,,,,,,rot,blue,b,0,,,,,,,,,5,0,60,2,407.0539294000482,,,,,,,,,,,,,,,,,407.03976020007394,407.8537739000749,408.65346289996523,408.6377931999741,,,,,,,,,,,,,,,,,,,,,,,,,,,,,,,,,,,408.63782409997657,408.65346289996523,408.65346289996523,409.62169359996915,b,1,0.9541984000243247,None,,,,sub-864538,001,2024-03-11_18h11.51.015,stroop_test,2023.2.3,60.18317350039054,2024-03-11 18h11.58.407035 +0100,
,,,,,,,,blau,yellow,g,0,,,,,,,,,5,1,61,7,409.6366870000493,,,,,,,,,,,,,,,,,409.623023299966,410.836552200024,411.6361949000275,411.62051330006216,,,,,,,,,,,,,,,,,,,,,,,,,,,,,,,,,,,411.6205437000608,411.6361949000275,411.6361949000275,412.40396140003577,g,1,0.7579645999940112,None,,,,sub-864538,001,2024-03-11_18h11.51.015,stroop_test,2023.2.3,60.18317350039054,2024-03-11 18h11.58.407035 +0100,
,,,,,,,,gelb,blue,b,0,,,,,,,,,5,2,62,9,412.41939910000656,,,,,,,,,,,,,,,,,412.4051064000232,413.619147600024,414.41893629997503,414.40312160004396,,,,,,,,,,,,,,,,,,,,,,,,,,,,,,,,,,,414.40315210004337,414.41893629997503,414.41893629997503,415.4701851999853,b,1,1.0459950000513345,None,,,,sub-864538,001,2024-03-11_18h11.51.015,stroop_test,2023.2.3,60.18317350039054,2024-03-11 18h11.58.407035 +0100,
,,,,,,,,gelb,red,r,0,,,,,,,,,5,3,63,8,415.4854284999892,,,,,,,,,,,,,,,,,415.4713209000183,416.6852882000385,417.4850971000269,417.46918919996824,,,,,,,,,,,,,,,,,,,,,,,,,,,,,,,,,,,417.46922960004304,417.4850971000269,417.4850971000269,418.3361073000124,r,1,0.8410719999810681,None,,,,sub-864538,001,2024-03-11_18h11.51.015,stroop_test,2023.2.3,60.18317350039054,2024-03-11 18h11.58.407035 +0100,
,,,,,,,,blau,red,r,0,,,,,,,,,5,4,64,4,418.3514079999877,,,,,,,,,,,,,,,,,418.3372417000355,418.70138179999776,419.50132350006606,419.48538940004073,,,,,,,,,,,,,,,,,,,,,,,,,,,,,,,,,,,419.485420800047,419.50132350006606,419.50132350006606,420.31911709997803,r,1,0.8046098999911919,None,,,,sub-864538,001,2024-03-11_18h11.51.015,stroop_test,2023.2.3,60.18317350039054,2024-03-11 18h11.58.407035 +0100,
,,,,,,,,blau,blue,b,1,,,,,,,,,5,5,65,5,420.33442359999754,,,,,,,,,,,,,,,,,420.3202742000576,421.53415149997454,422.33425299997907,422.3184359000297,,,,,,,,,,,,,,,,,,,,,,,,,,,,,,,,,,,422.3184728999622,422.33425299997907,422.33425299997907,423.1851553999586,b,1,0.8365887999534607,None,,,,sub-864538,001,2024-03-11_18h11.51.015,stroop_test,2023.2.3,60.18317350039054,2024-03-11 18h11.58.407035 +0100,
,,,,,,,,gelb,yellow,g,1,,,,,,,,,5,6,66,11,423.2004267000593,,,,,,,,,,,,,,,,,423.18614750006236,423.30036250001285,424.10022909997497,424.0840636000503,,,,,,,,,,,,,,,,,,,,,,,,,,,,,,,,,,,424.0840938000474,424.10022909997497,424.10022909997497,425.18437599996105,g,1,1.0700123000424355,None,,,,sub-864538,001,2024-03-11_18h11.51.015,stroop_test,2023.2.3,60.18317350039054,2024-03-11 18h11.58.407035 +0100,
,,,,,,,,gelb,yellow,g,1,,,,,,,,,5,7,67,10,425.2000389000168,,,,,,,,,,,,,,,,,425.1854579000501,425.2999349000165,426.09986690001097,426.0845049000345,,,,,,,,,,,,,,,,,,,,,,,,,,,,,,,,,,,426.0845406000735,426.09986690001097,426.09986690001097,426.63427030004095,g,1,0.5187727999873459,None,,,,sub-864538,001,2024-03-11_18h11.51.015,stroop_test,2023.2.3,60.18317350039054,2024-03-11 18h11.58.407035 +0100,
,,,,,,,,rot,red,r,1,,,,,,,,,5,8,68,1,426.6498354000505,,,,,,,,,,,,,,,,,426.6355521000223,426.7497389999917,427.54939820000436,427.53377380000893,,,,,,,,,,,,,,,,,,,,,,,,,,,,,,,,,,,427.53380530001596,427.54939820000436,427.54939820000436,428.16739279998,r,1,0.601395900011994,None,,,,sub-864538,001,2024-03-11_18h11.51.015,stroop_test,2023.2.3,60.18317350039054,2024-03-11 18h11.58.407035 +0100,
,,,,,,,,rot,red,r,1,,,,,,,,,5,9,69,0,428.18281639995985,,,,,,,,,,,,,,,,,428.16853759996593,428.532389900065,429.3325854999712,429.31645579996984,,,,,,,,,,,,,,,,,,,,,,,,,,,,,,,,,,,429.3164937000256,429.3325854999712,429.3325854999712,430.1003252000082,r,1,0.7576713999733329,None,,,,sub-864538,001,2024-03-11_18h11.51.015,stroop_test,2023.2.3,60.18317350039054,2024-03-11 18h11.58.407035 +0100,
,,,,,,,,rot,yellow,g,0,,,,,,,,,5,10,70,3,430.11548619996756,,,,,,,,,,,,,,,,,430.101558299968,430.9154505999759,431.7152883000672,431.69963160005864,,,,,,,,,,,,,,,,,,,,,,,,,,,,,,,,,,,431.69966210005805,431.7152883000672,431.7152883000672,432.5331285999855,g,1,0.8047112000640482,None,,,,sub-864538,001,2024-03-11_18h11.51.015,stroop_test,2023.2.3,60.18317350039054,2024-03-11 18h11.58.407035 +0100,
,,,,,,,,blau,blue,b,1,,,,,,,,,5,11,71,6,432.54852479998954,,,,,,,,,,,,,,,,,432.5342984000454,432.89850540005136,433.6982115000719,433.68235819996335,,,,,,,,,,,,,,,,,,,,,,,,,,,,,,,,,,,433.68238849996123,433.6982115000719,433.6982115000719,434.31580510002095,b,1,0.6067592999897897,None,,,,sub-864538,001,2024-03-11_18h11.51.015,stroop_test,2023.2.3,60.18317350039054,2024-03-11 18h11.58.407035 +0100,
,,,,,,,,gelb,yellow,g,1,,,,,,,,,6,0,72,11,434.3310073000612,,,,,,,,,,,,,,,,,434.3169445999665,435.13092779996805,435.93094710004516,435.91516299999785,,,,,,,,,,,,,,,,,,,,,,,,,,,,,,,,,,,435.9151936999988,435.93094710004516,435.93094710004516,436.76541790005285,g,1,0.8291184999980032,None,,,,sub-864538,001,2024-03-11_18h11.51.015,stroop_test,2023.2.3,60.18317350039054,2024-03-11 18h11.58.407035 +0100,
,,,,,,,,gelb,blue,b,0,,,,,,,,,6,1,73,9,436.78094900003634,,,,,,,,,,,,,,,,,436.7665763000259,437.13058350002393,437.93079290003516,437.9148078999715,,,,,,,,,,,,,,,,,,,,,,,,,,,,,,,,,,,437.91483929997776,437.93079290003516,437.93079290003516,438.93156469997484,b,1,0.9928033999167383,None,,,,sub-864538,001,2024-03-11_18h11.51.015,stroop_test,2023.2.3,60.18317350039054,2024-03-11 18h11.58.407035 +0100,
,,,,,,,,blau,yellow,g,0,,,,,,,,,6,2,74,7,438.946878900053,,,,,,,,,,,,,,,,,438.9328977999976,439.74681799998507,440.54681229998823,440.5308092000196,,,,,,,,,,,,,,,,,,,,,,,,,,,,,,,,,,,440.53083880001213,440.54681229998823,440.54681229998823,441.5143735000165,g,1,0.9627227999735624,None,,,,sub-864538,001,2024-03-11_18h11.51.015,stroop_test,2023.2.3,60.18317350039054,2024-03-11 18h11.58.407035 +0100,
,,,,,,,,rot,red,r,1,,,,,,,,,6,3,75,0,441.52976239996497,,,,,,,,,,,,,,,,,441.5155075000366,441.6296835000394,442.42959239997435,442.4138753999723,,,,,,,,,,,,,,,,,,,,,,,,,,,,,,,,,,,442.41390819998924,442.42959239997435,442.42959239997435,443.0640851999633,r,1,0.6240414000349119,None,,,,sub-864538,001,2024-03-11_18h11.51.015,stroop_test,2023.2.3,60.18317350039054,2024-03-11 18h11.58.407035 +0100,
,,,,,,,,blau,blue,b,1,,,,,,,,,6,4,76,6,443.07970959995873,,,,,,,,,,,,,,,,,443.0652596000582,443.87936849996913,444.67925809998997,444.6633331000339,,,,,,,,,,,,,,,,,,,,,,,,,,,,,,,,,,,444.663365000044,444.67925809998997,444.67925809998997,445.4138693000423,b,1,0.7280499000335112,None,,,,sub-864538,001,2024-03-11_18h11.51.015,stroop_test,2023.2.3,60.18317350039054,2024-03-11 18h11.58.407035 +0100,
,,,,,,,,rot,red,r,1,,,,,,,,,6,5,77,1,445.4290905999951,,,,,,,,,,,,,,,,,445.41501890006475,446.2288503999589,447.02871280000545,447.012788800057,,,,,,,,,,,,,,,,,,,,,,,,,,,,,,,,,,,447.0128196000587,447.02871280000545,447.02871280000545,447.7132234000601,r,1,0.6792864999733865,None,,,,sub-864538,001,2024-03-11_18h11.51.015,stroop_test,2023.2.3,60.18317350039054,2024-03-11 18h11.58.407035 +0100,
,,,,,,,,rot,yellow,g,0,,,,,,,,,6,6,78,3,447.7284895000048,,,,,,,,,,,,,,,,,447.7143736999715,447.8285305000609,448.62832530005835,448.6124329000013,,,,,,,,,,,,,,,,,,,,,,,,,,,,,,,,,,,448.61246670002583,448.62832530005835,448.62832530005835,449.56332630000543,g,1,0.9333950999425724,None,,,,sub-864538,001,2024-03-11_18h11.51.015,stroop_test,2023.2.3,60.18317350039054,2024-03-11 18h11.58.407035 +0100,
,,,,,,,,gelb,yellow,g,1,,,,,,,,,6,7,79,10,449.5779921000358,,,,,,,,,,,,,,,,,449.5651336000301,449.92806379997637,450.7280520000495,450.7121942000231,,,,,,,,,,,,,,,,,,,,,,,,,,,,,,,,,,,450.71223559998907,450.7280520000495,450.7280520000495,451.31291620002594,g,1,0.5716078000841662,None,,,,sub-864538,001,2024-03-11_18h11.51.015,stroop_test,2023.2.3,60.18317350039054,2024-03-11 18h11.58.407035 +0100,
,,,,,,,,gelb,red,r,0,,,,,,,,,6,8,80,8,451.32777089998126,,,,,,,,,,,,,,,,,451.31398109998554,452.1276520000538,452.9275454999879,452.91173589997925,,,,,,,,,,,,,,,,,,,,,,,,,,,,,,,,,,,452.91178920003586,452.9275454999879,452.9275454999879,454.02874280000106,r,1,1.0987464999780059,None,,,,sub-864538,001,2024-03-11_18h11.51.015,stroop_test,2023.2.3,60.18317350039054,2024-03-11 18h11.58.407035 +0100,
,,,,,,,,rot,blue,b,0,,,,,,,,,6,9,81,2,454.0438286999706,,,,,,,,,,,,,,,,,454.02989000000525,454.84387850004714,455.64361989998724,455.6275812999811,,,,,,,,,,,,,,,,,,,,,,,,,,,,,,,,,,,455.62761199998204,455.64361989998724,455.64361989998724,456.6279184999876,b,1,0.9724823000142351,None,,,,sub-864538,001,2024-03-11_18h11.51.015,stroop_test,2023.2.3,60.18317350039054,2024-03-11 18h11.58.407035 +0100,
,,,,,,,,blau,red,r,0,,,,,,,,,6,10,82,4,456.6432504999684,,,,,,,,,,,,,,,,,456.6292953999946,457.84308500005864,458.6429106000578,458.6271788000595,,,,,,,,,,,,,,,,,,,,,,,,,,,,,,,,,,,458.6272227000445,458.6429106000578,458.6429106000578,459.8104479999747,r,1,1.1547755000647157,None,,,,sub-864538,001,2024-03-11_18h11.51.015,stroop_test,2023.2.3,60.18317350039054,2024-03-11 18h11.58.407035 +0100,
,,,,,,,,blau,blue,b,1,,,,,,,,,6,11,83,5,459.82609149999917,,,,,,,,,,,,,,,,,459.81163600005675,460.17584060004447,460.9757437000517,460.9599865999771,,,,,,,,,,,,,,,,,,,,,,,,,,,,,,,,,,,460.9600187999895,460.9757437000517,460.9757437000517,461.6438479999779,b,1,0.6505005999933928,None,,,,sub-864538,001,2024-03-11_18h11.51.015,stroop_test,2023.2.3,60.18317350039054,2024-03-11 18h11.58.407035 +0100,
,,,,,,,,blau,red,r,0,,,,,,,,,7,0,84,4,461.6589195000706,,,,,,,,,,,,,,,,,461.6450213000644,462.00883249996696,462.80885340005625,462.79328189999796,,,,,,,,,,,,,,,,,,,,,,,,,,,,,,,,,,,462.7933163000271,462.80885340005625,462.80885340005625,463.8765254999744,r,1,1.0518113999860361,None,,,,sub-864538,001,2024-03-11_18h11.51.015,stroop_test,2023.2.3,60.18317350039054,2024-03-11 18h11.58.407035 +0100,
,,,,,,,,rot,red,r,1,,,,,,,,,7,1,85,0,463.8916990000289,,,,,,,,,,,,,,,,,463.8776825000532,464.6916472000303,465.4913854000624,465.47566430002917,,,,,,,,,,,,,,,,,,,,,,,,,,,,,,,,,,,465.4756947000278,465.4913854000624,465.4913854000624,466.10915060003754,r,1,0.6033982000080869,None,,,,sub-864538,001,2024-03-11_18h11.51.015,stroop_test,2023.2.3,60.18317350039054,2024-03-11 18h11.58.407035 +0100,
,,,,,,,,blau,blue,b,1,,,,,,,,,7,2,86,6,466.12474820006173,,,,,,,,,,,,,,,,,466.1102116999682,466.924584900029,467.72428450000007,467.7085073000053,,,,,,,,,,,,,,,,,,,,,,,,,,,,,,,,,,,467.7085361999925,467.72428450000007,467.72428450000007,468.4089156000409,b,1,0.6704592999303713,None,,,,sub-864538,001,2024-03-11_18h11.51.015,stroop_test,2023.2.3,60.18317350039054,2024-03-11 18h11.58.407035 +0100,
,,,,,,,,rot,blue,b,0,,,,,,,,,7,3,87,2,468.4241143000545,,,,,,,,,,,,,,,,,468.4100650000619,468.77419570006896,469.5740235999692,469.5579906000057,,,,,,,,,,,,,,,,,,,,,,,,,,,,,,,,,,,469.55803740001284,469.5740235999692,469.5740235999692,470.3918508000206,b,1,0.8154319000896066,None,,,,sub-864538,001,2024-03-11_18h11.51.015,stroop_test,2023.2.3,60.18317350039054,2024-03-11 18h11.58.407035 +0100,
,,,,,,,,rot,red,r,1,,,,,,,,,7,4,88,1,470.40723820007406,,,,,,,,,,,,,,,,,470.3929429000709,471.206840800005,472.00674930005334,471.9909471999854,,,,,,,,,,,,,,,,,,,,,,,,,,,,,,,,,,,471.99098280002363,472.00674930005334,472.00674930005334,472.57477279996965,r,1,0.5516500999219716,None,,,,sub-864538,001,2024-03-11_18h11.51.015,stroop_test,2023.2.3,60.18317350039054,2024-03-11 18h11.58.407035 +0100,
,,,,,,,,blau,blue,b,1,,,,,,,,,7,5,89,5,472.5898809999926,,,,,,,,,,,,,,,,,472.57592600001954,473.7895620999625,474.58963180007413,474.5737458000658,,,,,,,,,,,,,,,,,,,,,,,,,,,,,,,,,,,474.5737769000698,474.58963180007413,474.58963180007413,475.1907700999873,b,1,0.5847047000424936,None,,,,sub-864538,001,2024-03-11_18h11.51.015,stroop_test,2023.2.3,60.18317350039054,2024-03-11 18h11.58.407035 +0100,
,,,,,,,,gelb,blue,b,0,,,,,,,,,7,6,90,9,475.2060002000071,,,,,,,,,,,,,,,,,475.19185760000255,476.4058013999602,477.20558980002534,477.189970800071,,,,,,,,,,,,,,,,,,,,,,,,,,,,,,,,,,,477.190011800034,477.20558980002534,477.20558980002534,477.9235026000533,b,1,0.7147429999895394,None,,,,sub-864538,001,2024-03-11_18h11.51.015,stroop_test,2023.2.3,60.18317350039054,2024-03-11 18h11.58.407035 +0100,
,,,,,,,,rot,yellow,g,0,,,,,,,,,7,7,91,3,477.93874570005573,,,,,,,,,,,,,,,,,477.9246325000422,479.13863419997506,479.93846990005113,479.92242149997037,,,,,,,,,,,,,,,,,,,,,,,,,,,,,,,,,,,479.92245289997663,479.93846990005113,479.93846990005113,480.88963780004997,g,1,0.9474591999314725,None,,,,sub-864538,001,2024-03-11_18h11.51.015,stroop_test,2023.2.3,60.18317350039054,2024-03-11 18h11.58.407035 +0100,
,,,,,,,,gelb,yellow,g,1,,,,,,,,,7,8,92,11,480.9049822000088,,,,,,,,,,,,,,,,,480.8908454000484,481.25488200003747,482.0544163000304,482.0384519000072,,,,,,,,,,,,,,,,,,,,,,,,,,,,,,,,,,,482.03848210000433,482.0544163000304,482.0544163000304,482.47244549996685,g,1,0.4093095000134781,None,,,,sub-864538,001,2024-03-11_18h11.51.015,stroop_test,2023.2.3,60.18317350039054,2024-03-11 18h11.58.407035 +0100,
,,,,,,,,blau,yellow,g,0,,,,,,,,,7,9,93,7,482.487832600018,,,,,,,,,,,,,,,,,482.47371040005237,482.5877744000172,483.3875431000488,483.37193220003974,,,,,,,,,,,,,,,,,,,,,,,,,,,,,,,,,,,483.3719638000475,483.3875431000488,483.3875431000488,483.83956390002277,g,1,0.4501161999069154,None,,,,sub-864538,001,2024-03-11_18h11.51.015,stroop_test,2023.2.3,60.18317350039054,2024-03-11 18h11.58.407035 +0100,
,,,,,,,,gelb,yellow,g,1,,,,,,,,,7,10,94,10,483.85416800004896,,,,,,,,,,,,,,,,,483.8407345999731,483.95418100000825,484.75400990003254,484.73834579996765,,,,,,,,,,,,,,,,,,,,,,,,,,,,,,,,,,,484.7383771999739,484.75400990003254,484.75400990003254,485.2219728999771,g,1,0.45575369999278337,None,,,,sub-864538,001,2024-03-11_18h11.51.015,stroop_test,2023.2.3,60.18317350039054,2024-03-11 18h11.58.407035 +0100,
,,,,,,,,gelb,red,r,0,,,,,,,,,7,11,95,8,485.23719959997106,,,,,,,,,,,,,,,,,485.2231706000166,486.43696119997185,487.23678050003946,487.2210219000699,,,,,,,,,,,,,,,,,,,,,,,,,,,,,,,,,,,487.221051700064,487.23678050003946,487.23678050003946,487.9378726000432,r,1,0.6935431000310928,None,,,,sub-864538,001,2024-03-11_18h11.51.015,stroop_test,2023.2.3,60.18317350039054,2024-03-11 18h11.58.407035 +0100,
,,,,,,,,gelb,red,r,0,,,,,,,,,8,0,96,8,487.95338620000985,,,,,,,,,,,,,,,,,487.9389890000457,488.303231399972,489.10310129995923,489.08738619997166,,,,,,,,,,,,,,,,,,,,,,,,,,,,,,,,,,,489.0874175999779,489.10310129995923,489.10310129995923,489.57103270001244,r,1,0.4612408000975847,None,,,,sub-864538,001,2024-03-11_18h11.51.015,stroop_test,2023.2.3,60.18317350039054,2024-03-11 18h11.58.407035 +0100,
,,,,,,,,rot,red,r,1,,,,,,,,,8,1,97,0,489.58626859996,,,,,,,,,,,,,,,,,489.5721872000722,490.78603289998136,491.58590529998764,491.5701907000039,,,,,,,,,,,,,,,,,,,,,,,,,,,,,,,,,,,491.5702217000071,491.58590529998764,491.58590529998764,492.1376215000637,r,1,0.548646799987182,None,,,,sub-864538,001,2024-03-11_18h11.51.015,stroop_test,2023.2.3,60.18317350039054,2024-03-11 18h11.58.407035 +0100,
,,,,,,,,rot,red,r,1,,,,,,,,,8,2,98,1,492.15266939997673,,,,,,,,,,,,,,,,,492.13871079997625,493.35217550001107,494.1520269999746,494.13628039998,,,,,,,,,,,,,,,,,,,,,,,,,,,,,,,,,,,494.1363146000076,494.1520269999746,494.1520269999746,494.5698903000448,r,1,0.401877099997364,None,,,,sub-864538,001,2024-03-11_18h11.51.015,stroop_test,2023.2.3,60.18317350039054,2024-03-11 18h11.58.407035 +0100,
,,,,,,,,gelb,yellow,g,1,,,,,,,,,8,3,99,10,494.58512469998095,,,,,,,,,,,,,,,,,494.57103140000254,495.78509530005977,496.58499490004033,496.56890960002784,,,,,,,,,,,,,,,,,,,,,,,,,,,,,,,,,,,496.5689456000691,496.58499490004033,496.58499490004033,497.5695747999707,g,1,0.9822674000170082,None,,,,sub-864538,001,2024-03-11_18h11.51.015,stroop_test,2023.2.3,60.18317350039054,2024-03-11 18h11.58.407035 +0100,
,,,,,,,,gelb,blue,b,0,,,,,,,,,8,4,100,9,497.58458889997564,,,,,,,,,,,,,,,,,497.5707324000541,498.7844902999932,499.58413870004006,499.56836080003995,,,,,,,,,,,,,,,,,,,,,,,,,,,,,,,,,,,499.56839290005155,499.58413870004006,499.58413870004006,500.3521966000553,b,1,0.7573296999325976,None,,,,sub-864538,001,2024-03-11_18h11.51.015,stroop_test,2023.2.3,60.18317350039054,2024-03-11 18h11.58.407035 +0100,
,,,,,,,,rot,yellow,g,0,,,,,,,,,8,5,101,3,500.36744639999233,,,,,,,,,,,,,,,,,500.35334500006866,501.1673074000282,501.96712330006994,501.9510190000292,,,,,,,,,,,,,,,,,,,,,,,,,,,,,,,,,,,501.95105040003546,501.96712330006994,501.96712330006994,502.8347781000193,g,1,0.8649225999834016,None,,,,sub-864538,001,2024-03-11_18h11.51.015,stroop_test,2023.2.3,60.18317350039054,2024-03-11 18h11.58.407035 +0100,
,,,,,,,,blau,blue,b,1,,,,,,,,,8,6,102,6,502.85015900002327,,,,,,,,,,,,,,,,,502.835951999994,503.65003889997024,504.4497562999604,504.4340677000582,,,,,,,,,,,,,,,,,,,,,,,,,,,,,,,,,,,504.4340991000645,504.4497562999604,504.4497562999604,505.05103440000676,b,1,0.5917247000616044,None,,,,sub-864538,001,2024-03-11_18h11.51.015,stroop_test,2023.2.3,60.18317350039054,2024-03-11 18h11.58.407035 +0100,
,,,,,,,,blau,red,r,0,,,,,,,,,8,7,103,4,505.0665011999663,,,,,,,,,,,,,,,,,505.0521938999882,505.4162631999934,506.2162329000421,506.2001963000512,,,,,,,,,,,,,,,,,,,,,,,,,,,,,,,,,,,506.2002268000506,506.2162329000421,506.2162329000421,506.9673684000736,r,1,0.7492261999286711,None,,,,sub-864538,001,2024-03-11_18h11.51.015,stroop_test,2023.2.3,60.18317350039054,2024-03-11 18h11.58.407035 +0100,
,,,,,,,,gelb,yellow,g,1,,,,,,,,,8,8,104,11,506.9825840999838,,,,,,,,,,,,,,,,,506.9685346999904,507.08255349996034,507.8825145000592,507.8665574999759,,,,,,,,,,,,,,,,,,,,,,,,,,,,,,,,,,,507.86658819997683,507.8825145000592,507.8825145000592,508.8009374999674,g,1,0.9113284000195563,None,,,,sub-864538,001,2024-03-11_18h11.51.015,stroop_test,2023.2.3,60.18317350039054,2024-03-11 18h11.58.407035 +0100,
,,,,,,,,rot,blue,b,0,,,,,,,,,8,9,105,2,508.8154633999802,,,,,,,,,,,,,,,,,508.8021955000004,510.01541970006656,510.81512310006656,510.79940829996485,,,,,,,,,,,,,,,,,,,,,,,,,,,,,,,,,,,510.79945020005107,510.81512310006656,510.81512310006656,511.7662974999985,b,1,0.9451721000950783,None,,,,sub-864538,001,2024-03-11_18h11.51.015,stroop_test,2023.2.3,60.18317350039054,2024-03-11 18h11.58.407035 +0100,
,,,,,,,,blau,yellow,g,0,,,,,,,,,8,10,106,7,511.78152359998785,,,,,,,,,,,,,,,,,511.7675358999986,512.581436800072,513.381276100059,513.3654624000192,,,,,,,,,,,,,,,,,,,,,,,,,,,,,,,,,,,513.3654933000216,513.381276100059,513.381276100059,514.1658876000438,g,1,0.7744777000043541,None,,,,sub-864538,001,2024-03-11_18h11.51.015,stroop_test,2023.2.3,60.18317350039054,2024-03-11 18h11.58.407035 +0100,
,,,,,,,,blau,blue,b,1,,,,,,,,,8,11,107,5,514.1810207000235,,,,,,,,,,,,,,,,,514.1671547000296,515.3808373999782,516.1806366000092,516.164889800013,,,,,,,,,,,,,,,,,,,,,,,,,,,,,,,,,,,516.1650523999706,516.1806366000092,516.1806366000092,516.7985169000458,b,1,0.6102029000176117,None,,,,sub-864538,001,2024-03-11_18h11.51.015,stroop_test,2023.2.3,60.18317350039054,2024-03-11 18h11.58.407035 +0100,
,,,,,,,,blau,red,r,0,,,,,,,,,9,0,108,4,516.813858199981,,,,,,,,,,,,,,,,,516.7997240000404,518.0137181000318,518.8134007999906,518.7977837000508,,,,,,,,,,,,,,,,,,,,,,,,,,,,,,,,,,,518.7978279000381,518.8134007999906,518.8134007999906,519.7145700000692,r,1,0.8881644000066444,None,,,,sub-864538,001,2024-03-11_18h11.51.015,stroop_test,2023.2.3,60.18317350039054,2024-03-11 18h11.58.407035 +0100,
,,,,,,,,gelb,yellow,g,1,,,,,,,,,9,1,109,11,519.7298140999628,,,,,,,,,,,,,,,,,519.7157168000704,520.5296581999864,521.329547500005,521.3135034000734,,,,,,,,,,,,,,,,,,,,,,,,,,,,,,,,,,,521.3135335000698,521.329547500005,521.329547500005,522.0807906000409,g,1,0.747895700042136,None,,,,sub-864538,001,2024-03-11_18h11.51.015,stroop_test,2023.2.3,60.18317350039054,2024-03-11 18h11.58.407035 +0100,
,,,,,,,,blau,yellow,g,0,,,,,,,,,9,2,110,7,522.096012199996,,,,,,,,,,,,,,,,,522.0819291999796,522.1961833999958,522.9958678999683,522.9800032000057,,,,,,,,,,,,,,,,,,,,,,,,,,,,,,,,,,,522.9800347000128,522.9958678999683,522.9958678999683,523.5136664999882,g,1,0.5142366000218317,None,,,,sub-864538,001,2024-03-11_18h11.51.015,stroop_test,2023.2.3,60.18317350039054,2024-03-11 18h11.58.407035 +0100,
,,,,,,,,gelb,yellow,g,1,,,,,,,,,9,3,111,10,523.5292209000327,,,,,,,,,,,,,,,,,523.5150055000558,523.6292109000497,524.4290389000671,524.4129904999863,,,,,,,,,,,,,,,,,,,,,,,,,,,,,,,,,,,524.4130209999857,524.4290389000671,524.4290389000671,524.9133048000513,g,1,0.4791947999037802,None,,,,sub-864538,001,2024-03-11_18h11.51.015,stroop_test,2023.2.3,60.18317350039054,2024-03-11 18h11.58.407035 +0100,
,,,,,,,,blau,blue,b,1,,,,,,,,,9,4,112,5,524.9287868000101,,,,,,,,,,,,,,,,,524.9144712999696,525.2787866999861,526.0785766000627,526.0628220000071,,,,,,,,,,,,,,,,,,,,,,,,,,,,,,,,,,,526.0628535000142,526.0785766000627,526.0785766000627,526.6964522000635,b,1,0.6129976999945939,None,,,,sub-864538,001,2024-03-11_18h11.51.015,stroop_test,2023.2.3,60.18317350039054,2024-03-11 18h11.58.407035 +0100,
,,,,,,,,rot,red,r,1,,,,,,,,,9,5,113,0,526.7116582000162,,,,,,,,,,,,,,,,,526.6976402000291,527.0617466999684,527.861571699963,527.8456710999599,,,,,,,,,,,,,,,,,,,,,,,,,,,,,,,,,,,527.8457023999654,527.861571699963,527.861571699963,528.5127218000125,r,1,0.6450967999408022,None,,,,sub-864538,001,2024-03-11_18h11.51.015,stroop_test,2023.2.3,60.18317350039054,2024-03-11 18h11.58.407035 +0100,
,,,,,,,,blau,blue,b,1,,,,,,,,,9,6,114,6,528.5279486000072,,,,,,,,,,,,,,,,,528.5139062000671,529.3281026000623,530.1275785999605,530.1120051000034,,,,,,,,,,,,,,,,,,,,,,,,,,,,,,,,,,,530.1120465999702,530.1275785999605,530.1275785999605,530.8623024000553,b,1,0.7327078999951482,None,,,,sub-864538,001,2024-03-11_18h11.51.015,stroop_test,2023.2.3,60.18317350039054,2024-03-11 18h11.58.407035 +0100,
,,,,,,,,rot,yellow,g,0,,,,,,,,,9,7,115,3,530.8773057999788,,,,,,,,,,,,,,,,,530.8635631999932,532.0772092000116,532.8771472000517,532.8612405000022,,,,,,,,,,,,,,,,,,,,,,,,,,,,,,,,,,,532.8612708,532.8771472000517,532.8771472000517,533.9449677000521,g,1,1.0544792999280617,None,,,,sub-864538,001,2024-03-11_18h11.51.015,stroop_test,2023.2.3,60.18317350039054,2024-03-11 18h11.58.407035 +0100,
,,,,,,,,gelb,blue,b,0,,,,,,,,,9,8,116,9,533.9601794000482,,,,,,,,,,,,,,,,,533.9461304000579,534.7600279999897,535.5597841000417,535.5443718000315,,,,,,,,,,,,,,,,,,,,,,,,,,,,,,,,,,,535.5444028000347,535.5597841000417,535.5597841000417,537.1267547999742,b,1,1.5531093999743462,None,,,,sub-864538,001,2024-03-11_18h11.51.015,stroop_test,2023.2.3,60.18317350039054,2024-03-11 18h11.58.407035 +0100,
,,,,,,,,gelb,red,r,0,,,,,,,,,9,9,117,8,537.1426092999754,,,,,,,,,,,,,,,,,537.1279147999594,537.4924630000023,538.2925235000439,538.2767529999837,,,,,,,,,,,,,,,,,,,,,,,,,,,,,,,,,,,538.2767950000707,538.2925235000439,538.2925235000439,539.0771267999662,r,1,0.7753183000022545,None,,,,sub-864538,001,2024-03-11_18h11.51.015,stroop_test,2023.2.3,60.18317350039054,2024-03-11 18h11.58.407035 +0100,
,,,,,,,,rot,red,r,1,,,,,,,,,9,10,118,1,539.0924104000442,,,,,,,,,,,,,,,,,539.0782851000549,539.1924269000301,539.9922829000279,539.9763318999903,,,,,,,,,,,,,,,,,,,,,,,,,,,,,,,,,,,539.9763629999943,539.9922829000279,539.9922829000279,540.8435075000161,r,1,0.8399515000637621,None,,,,sub-864538,001,2024-03-11_18h11.51.015,stroop_test,2023.2.3,60.18317350039054,2024-03-11 18h11.58.407035 +0100,
,,,,,,,,rot,blue,b,0,,,,,,,,,9,11,119,2,540.8587761999806,,,,,,,,,,,,,,,,,540.8447165000252,540.9587030999828,541.7583299999824,541.7427029999672,,,,,,,,,,,,,,,,,,,,,,,,,,,,,,,,,,,541.7427351999795,541.7583299999824,541.7583299999824,542.5101149000693,b,1,0.7463366000447422,None,,,,sub-864538,001,2024-03-11_18h11.51.015,stroop_test,2023.2.3,60.18317350039054,2024-03-11 18h11.58.407035 +0100,
,,,,,,,,,,,,,,,,,,,,,,,,,,,,,,,,,,,,,,,,,,,,,,,,,,,,,,,,,,,,,,,,,,,,,,,,,,,,,,,,,,,,,,,542.5109287999803,542.5252240999835,547.5242116000736,,,,,,,,
