wordCTK,colorCTK,corrAnsCTK,congruentCTK,wordPractice,colorPractice,corrAnsPractice,congruentPractice,word,color,corrAns,congruent,trials_CTK.thisRepN,trials_CTK.thisTrialN,trials_CTK.thisN,trials_CTK.thisIndex,trials_practice.thisRepN,trials_practice.thisTrialN,trials_practice.thisN,trials_practice.thisIndex,trials_test.thisRepN,trials_test.thisTrialN,trials_test.thisN,trials_test.thisIndex,thisRow.t,notes,instruction.started,instr_text.started,instr_image.started,instr_resp.started,instruction.stopped,instr_resp.keys,instr_resp.rt,instr_resp.duration,instr_color_to_key.started,instr_ctk.started,resp_ctk.started,instr_color_to_key.stopped,resp_ctk.keys,resp_ctk.rt,resp_ctk.duration,ITI.started,fixcross.started,fixcross.stopped,ITI.stopped,color_to_key_run.started,stimulus_CTK.started,keyResp_CTK.started,color_to_key_run.stopped,keyResp_CTK.keys,keyResp_CTK.corr,keyResp_CTK.rt,keyResp_CTK.duration,instr_practice.started,instr_practice_text.started,instr_practice_resp.started,instr_practice.stopped,instr_practice_resp.keys,instr_practice_resp.rt,instr_practice_resp.duration,practice_run.started,stimulus_practice.started,respPractice.started,practice_run.stopped,respPractice.keys,respPractice.corr,respPractice.rt,respPractice.duration,feedback.started,textFeedback.started,textFeedback.stopped,feedback.stopped,instr_test.started,instr_test_text.started,instr_test_resp.started,instr_test.stopped,instr_test_resp.keys,instr_test_resp.rt,instr_test_resp.duration,test_run.started,stimulus_test_run.started,keyResp_test_run.started,test_run.stopped,keyResp_test_run.keys,keyResp_test_run.corr,keyResp_test_run.rt,keyResp_test_run.duration,goodbye.started,textGoodbye.started,goodbye.stopped,participant,session,date,expName,psychopyVersion,frameRate,expStart,
,,,,,,,,,,,,,,,,,,,,,,,,,,0.001685399911366403,0.041164099937304854,0.041164099937304854,0.041164099937304854,48.80566539999563,space,48.748125699930824,None,,,,,,,,,,,,,,,,,,,,,,,,,,,,,,,,,,,,,,,,,,,,,,,,,,,,,,,,,sub-794237,001,2024-03-11_15h34.37.366,stroop_test,2023.2.3,60.067852645543375,2024-03-11 15h34.51.453020 +0100,
,,,,,,,,,,,,,,,,,,,,,,,,,,,,,,,,,,48.80570019991137,48.82127279997803,48.82127279997803,55.470925199915655,space,6.636455100029707,None,,,,,,,,,,,,,,,,,,,,,,,,,,,,,,,,,,,,,,,,,,,,,,,,,,sub-794237,001,2024-03-11_15h34.37.366,stroop_test,2023.2.3,60.067852645543375,2024-03-11 15h34.51.453020 +0100,
test,yellow,g,1,,,,,,,,,0,0,0,1,,,,,,,,,55.48640279995743,,,,,,,,,,,,,,,,,55.47823529993184,56.28625189990271,57.08623459993396,57.07023389998358,57.07025479990989,57.08623459993396,57.08623459993396,68.0684785998892,g,1,10.972048600087874,None,,,,,,,,,,,,,,,,,,,,,,,,,,,,,,,,,,,,,,sub-794237,001,2024-03-11_15h34.37.366,stroop_test,2023.2.3,60.067852645543375,2024-03-11 15h34.51.453020 +0100,
test,blue,b,1,,,,,,,,,0,1,1,2,,,,,,,,,68.08366769994609,,,,,,,,,,,,,,,,,68.06931989989243,68.88350339990575,69.68326139997225,69.66749129991513,69.66751199995633,69.68326139997225,69.68326139997225,71.68404979992192,b,1,1.997938200016506,None,,,,,,,,,,,,,,,,,,,,,,,,,,,,,,,,,,,,,,sub-794237,001,2024-03-11_15h34.37.366,stroop_test,2023.2.3,60.067852645543375,2024-03-11 15h34.51.453020 +0100,
test,red,r,1,,,,,,,,,0,2,2,0,,,,,,,,,71.69979599991348,,,,,,,,,,,,,,,,,71.68461969995406,72.04971179994754,72.84941629995592,72.83329599990975,72.83331429993268,72.84941629995592,72.84941629995592,74.01684639998712,r,1,1.1618514000438154,None,,,,,,,,,,,,,,,,,,,,,,,,,,,,,,,,,,,,,,sub-794237,001,2024-03-11_15h34.37.366,stroop_test,2023.2.3,60.067852645543375,2024-03-11 15h34.51.453020 +0100,
test,red,r,1,,,,,,,,,1,0,3,0,,,,,,,,,74.03229669993743,,,,,,,,,,,,,,,,,74.01734779996332,74.13254279992543,74.93231799989007,74.91642339993268,74.91644439997617,74.93231799989007,74.93231799989007,75.78309499996249,r,1,0.8428790000034496,None,,,,,,,,,,,,,,,,,,,,,,,,,,,,,,,,,,,,,,sub-794237,001,2024-03-11_15h34.37.366,stroop_test,2023.2.3,60.067852645543375,2024-03-11 15h34.51.453020 +0100,
test,yellow,g,1,,,,,,,,,1,1,4,1,,,,,,,,,75.79880509991199,,,,,,,,,,,,,,,,,75.78358669998124,76.14872949989513,76.94871639995836,76.93297199998051,76.93300739990082,76.94871639995836,76.94871639995836,78.46617319993675,g,1,1.5111779000144452,None,,,,,,,,,,,,,,,,,,,,,,,,,,,,,,,,,,,,,,sub-794237,001,2024-03-11_15h34.37.366,stroop_test,2023.2.3,60.067852645543375,2024-03-11 15h34.51.453020 +0100,
test,blue,b,1,,,,,,,,,1,2,5,2,,,,,,,,,78.48139039997477,,,,,,,,,,,,,,,,,78.46669919998385,79.28127359994687,80.08115999994334,80.06531479989644,80.06533749995288,80.08115999994334,80.08115999994334,83.38182019989472,b,1,3.297306500026025,None,,,,,,,,,,,,,,,,,,,,,,,,,,,,,,,,,,,,,,sub-794237,001,2024-03-11_15h34.37.366,stroop_test,2023.2.3,60.067852645543375,2024-03-11 15h34.51.453020 +0100,
test,yellow,g,1,,,,,,,,,2,0,6,1,,,,,,,,,83.39725039992481,,,,,,,,,,,,,,,,,83.38241309998557,84.19707819994073,84.9970201998949,84.98088849999476,84.98091289994773,84.9970201998949,84.9970201998949,86.98060909996275,g,1,1.9807032000971958,None,,,,,,,,,,,,,,,,,,,,,,,,,,,,,,,,,,,,,,sub-794237,001,2024-03-11_15h34.37.366,stroop_test,2023.2.3,60.067852645543375,2024-03-11 15h34.51.453020 +0100,
test,red,r,1,,,,,,,,,2,1,7,0,,,,,,,,,86.99633029999677,,,,,,,,,,,,,,,,,86.9811056999024,87.34644509991631,88.14614779991098,88.12995699991006,88.12997989996802,88.14614779991098,88.14614779991098,89.14703279989772,r,1,0.9967362000606954,None,,,,,,,,,,,,,,,,,,,,,,,,,,,,,,,,,,,,,,sub-794237,001,2024-03-11_15h34.37.366,stroop_test,2023.2.3,60.067852645543375,2024-03-11 15h34.51.453020 +0100,
test,blue,b,1,,,,,,,,,2,2,8,2,,,,,,,,,89.16263079992495,,,,,,,,,,,,,,,,,89.14755929994863,89.2627243999159,90.06270159990527,90.04636729997583,90.046385499998,90.06270159990527,90.06270159990527,91.86299850000069,b,1,1.7843362999847159,None,,,,,,,,,,,,,,,,,,,,,,,,,,,,,,,,,,,,,,sub-794237,001,2024-03-11_15h34.37.366,stroop_test,2023.2.3,60.067852645543375,2024-03-11 15h34.51.453020 +0100,
test,yellow,g,1,,,,,,,,,3,0,9,1,,,,,,,,,91.87877179996576,,,,,,,,,,,,,,,,,91.86344559991267,93.07845759997144,93.87828039994929,93.86236879997887,93.86239369993564,93.87828039994929,93.87828039994929,95.19698689994402,g,1,1.3162508000386879,None,,,,,,,,,,,,,,,,,,,,,,,,,,,,,,,,,,,,,,sub-794237,001,2024-03-11_15h34.37.366,stroop_test,2023.2.3,60.067852645543375,2024-03-11 15h34.51.453020 +0100,
test,red,r,1,,,,,,,,,3,1,10,0,,,,,,,,,95.21139119996224,,,,,,,,,,,,,,,,,95.19779149990063,96.0112560999114,96.81121259997599,96.79527969995979,96.79530089988839,96.81121259997599,96.81121259997599,98.11173699994106,r,1,1.2955674000550061,None,,,,,,,,,,,,,,,,,,,,,,,,,,,,,,,,,,,,,,sub-794237,001,2024-03-11_15h34.37.366,stroop_test,2023.2.3,60.067852645543375,2024-03-11 15h34.51.453020 +0100,
test,blue,b,1,,,,,,,,,3,2,11,2,,,,,,,,,98.12730389996432,,,,,,,,,,,,,,,,,98.11217859992757,98.22736859996803,99.02710869989824,99.01130689994898,99.01133239991032,99.02710869989824,99.02710869989824,101.47815979993902,b,1,2.4497939000139013,None,,,,,,,,,,,,,,,,,,,,,,,,,,,,,,,,,,,,,,sub-794237,001,2024-03-11_15h34.37.366,stroop_test,2023.2.3,60.067852645543375,2024-03-11 15h34.51.453020 +0100,
,,,,,,,,,,,,,,,,,,,,,,,,,,,,,,,,,,,,,,,,,,,,,,,,,,,,,101.478582099895,101.49351849989034,101.49351849989034,103.87703719991259,space,2.3738401000155136,None,,,,,,,,,,,,,,,,,,,,,,,,,,,,,,,sub-794237,001,2024-03-11_15h34.37.366,stroop_test,2023.2.3,60.067852645543375,2024-03-11 15h34.51.453020 +0100,
,,,,rot,red,r,1,,,,,,,,,0,0,0,1,,,,,103.92528419999871,,,,,,,,,,,,,,,,,103.92332419997547,104.67616899998393,105.47587569989264,105.46029550000094,,,,,,,,,,,,,,,,105.46031609992497,105.47587569989264,105.47587569989264,107.80967279989272,r,1,2.3296160999452695,None,107.81018519995268,107.82525069999974,108.82531989994459,108.80933569988701,,,,,,,,,,,,,,,,,,,sub-794237,001,2024-03-11_15h34.37.366,stroop_test,2023.2.3,60.067852645543375,2024-03-11 15h34.51.453020 +0100,
,,,,blau,red,r,0,,,,,,,,,0,1,1,4,,,,,108.82531989994459,,,,,,,,,,,,,,,,,108.80971329996828,109.62516639998648,110.42495319992304,110.40906299999915,,,,,,,,,,,,,,,,110.40909049997572,110.42495319992304,110.42495319992304,111.45895749994088,b,0,1.0172502000350505,None,111.4592492999509,111.47451739991084,112.47442059998866,112.45831489993725,,,,,,,,,,,,,,,,,,,sub-794237,001,2024-03-11_15h34.37.366,stroop_test,2023.2.3,60.067852645543375,2024-03-11 15h34.51.453020 +0100,
,,,,blau,blue,b,1,,,,,,,,,0,2,2,5,,,,,112.47442059998866,,,,,,,,,,,,,,,,,112.45859949989244,113.67412999994121,114.47402199998032,114.45791179989465,,,,,,,,,,,,,,,,114.45793499995489,114.47402199998032,114.47402199998032,116.308071599924,b,1,1.829144199960865,None,116.30846659990493,116.32353299995884,117.32337129989173,117.3073225999251,,,,,,,,,,,,,,,,,,,sub-794237,001,2024-03-11_15h34.37.366,stroop_test,2023.2.3,60.067852645543375,2024-03-11 15h34.51.453020 +0100,
,,,,blau,yellow,g,0,,,,,,,,,0,3,3,7,,,,,117.32337129989173,,,,,,,,,,,,,,,,,117.30768799991347,118.1232426998904,118.92303299997002,118.9070879999781,,,,,,,,,,,,,,,,118.90710879990365,118.92303299997002,118.92303299997002,120.10705939994659,g,1,1.168045499944128,None,120.10742609994486,120.12287530000322,121.12248899997212,121.10661189991515,,,,,,,,,,,,,,,,,,,sub-794237,001,2024-03-11_15h34.37.366,stroop_test,2023.2.3,60.067852645543375,2024-03-11 15h34.51.453020 +0100,
,,,,gelb,blue,b,0,,,,,,,,,0,4,4,9,,,,,121.12248899997212,,,,,,,,,,,,,,,,,121.10695960000157,121.47261319996323,122.27240209991578,122.25643670000136,,,,,,,,,,,,,,,,122.25645979994442,122.27240209991578,122.27240209991578,124.12297329993453,b,1,1.842852299916558,None,124.1233764999779,124.13842769991606,125.13829259993508,125.12230279995129,,,,,,,,,,,,,,,,,,,sub-794237,001,2024-03-11_15h34.37.366,stroop_test,2023.2.3,60.067852645543375,2024-03-11 15h34.51.453020 +0100,
,,,,gelb,yellow,g,1,,,,,,,,,0,5,5,11,,,,,125.13829259993508,,,,,,,,,,,,,,,,,125.12248859996907,125.93817909993231,126.73794339993037,126.72230189992115,,,,,,,,,,,,,,,,126.72233089990914,126.73794339993037,126.73794339993037,128.62154669989832,g,1,1.8711687999311835,None,128.6218064998975,128.63754669995978,129.6373810999794,129.62165939994156,,,,,,,,,,,,,,,,,,,sub-794237,001,2024-03-11_15h34.37.366,stroop_test,2023.2.3,60.067852645543375,2024-03-11 15h34.51.453020 +0100,
,,,,rot,blue,b,0,,,,,,,,,0,6,6,2,,,,,129.6373810999794,,,,,,,,,,,,,,,,,129.62209559988696,130.83705089997966,131.63693259994034,131.6210833999794,,,,,,,,,,,,,,,,131.6211055999156,131.63693259994034,131.63693259994034,133.15496999991592,b,1,1.5167479000519961,None,133.15536389988847,133.16994609998073,134.1698131999001,134.15372619999107,,,,,,,,,,,,,,,,,,,sub-794237,001,2024-03-11_15h34.37.366,stroop_test,2023.2.3,60.067852645543375,2024-03-11 15h34.51.453020 +0100,
,,,,gelb,red,r,0,,,,,,,,,0,7,7,8,,,,,134.1698131999001,,,,,,,,,,,,,,,,,134.15402149991132,134.96958269993775,135.76935550000053,135.75371909991372,,,,,,,,,,,,,,,,135.75374289997853,135.76935550000053,135.76935550000053,137.08703049994074,r,1,1.3130104000447318,None,137.08752729999833,137.10259829997085,138.1023331999313,138.08609639992937,,,,,,,,,,,,,,,,,,,sub-794237,001,2024-03-11_15h34.37.366,stroop_test,2023.2.3,60.067852645543375,2024-03-11 15h34.51.453020 +0100,
,,,,rot,red,r,1,,,,,,,,,0,8,8,0,,,,,138.1023331999313,,,,,,,,,,,,,,,,,138.0865136999637,138.45216599991545,139.25198089994956,139.23599319998175,,,,,,,,,,,,,,,,139.23602189996745,139.25198089994956,139.25198089994956,140.3192614999134,r,1,1.0569093000376597,None,140.31959049997386,140.33530639996752,141.33489549998194,141.31904629990458,,,,,,,,,,,,,,,,,,,sub-794237,001,2024-03-11_15h34.37.366,stroop_test,2023.2.3,60.067852645543375,2024-03-11 15h34.51.453020 +0100,
,,,,rot,yellow,g,0,,,,,,,,,0,9,9,3,,,,,141.33489549998194,,,,,,,,,,,,,,,,,141.31942989991512,141.68512039992493,142.484772900003,142.46885179996025,,,,,,,,,,,,,,,,142.46887479990255,142.484772900003,142.484772900003,144.75200679991394,g,1,2.2629314999794587,None,144.75237109989394,144.76754999998957,145.7673131999327,145.75143369997386,,,,,,,,,,,,,,,,,,,sub-794237,001,2024-03-11_15h34.37.366,stroop_test,2023.2.3,60.067852645543375,2024-03-11 15h34.51.453020 +0100,
,,,,blau,blue,b,1,,,,,,,,,0,10,10,6,,,,,145.7673131999327,,,,,,,,,,,,,,,,,145.75171419989783,146.56736180000007,147.36725959996693,147.3511448999634,,,,,,,,,,,,,,,,147.35116719990037,147.36725959996693,147.36725959996693,149.16757529997267,b,1,1.7897871000459418,None,149.16792929999065,149.1830886999378,150.1828525000019,150.16730599990115,,,,,,,,,,,,,,,,,,,sub-794237,001,2024-03-11_15h34.37.366,stroop_test,2023.2.3,60.067852645543375,2024-03-11 15h34.51.453020 +0100,
,,,,gelb,yellow,g,1,,,,,,,,,0,11,11,10,,,,,150.1828525000019,,,,,,,,,,,,,,,,,150.16773399990052,150.98281319998205,151.78253259998746,151.766647499986,,,,,,,,,,,,,,,,151.7666670999024,151.78253259998746,151.78253259998746,152.75004839990288,g,1,0.9625850999727845,None,152.75035809993278,152.7658386999974,153.76568159996532,153.75002579996362,,,,,,,,,,,,,,,,,,,sub-794237,001,2024-03-11_15h34.37.366,stroop_test,2023.2.3,60.067852645543375,2024-03-11 15h34.51.453020 +0100,
,,,,rot,red,r,1,,,,,,,,,1,0,12,0,,,,,153.76568159996532,,,,,,,,,,,,,,,,,153.75037529994734,154.5654600999551,155.36533509998117,155.349498399999,,,,,,,,,,,,,,,,155.3495223999489,155.36533509998117,155.36533509998117,156.21610899991356,r,1,0.8468690000008792,None,156.21643599995878,156.23166269995272,157.23152399994433,157.21571419993415,,,,,,,,,,,,,,,,,,,sub-794237,001,2024-03-11_15h34.37.366,stroop_test,2023.2.3,60.067852645543375,2024-03-11 15h34.51.453020 +0100,
,,,,rot,blue,b,0,,,,,,,,,1,1,13,2,,,,,157.23152399994433,,,,,,,,,,,,,,,,,157.21606479992624,158.03132069995627,158.83114149991889,158.81539629993495,,,,,,,,,,,,,,,,158.815417899983,158.83114149991889,158.83114149991889,160.33251959993504,b,1,1.4999860000098124,None,160.33292499999516,160.34760749991983,161.3473498999374,161.3312187999254,,,,,,,,,,,,,,,,,,,sub-794237,001,2024-03-11_15h34.37.366,stroop_test,2023.2.3,60.067852645543375,2024-03-11 15h34.51.453020 +0100,
,,,,gelb,blue,b,0,,,,,,,,,1,2,14,9,,,,,161.3473498999374,,,,,,,,,,,,,,,,,161.33155609993264,161.4474685000023,162.24712419998832,162.2310244999826,,,,,,,,,,,,,,,,162.23104579991195,162.24712419998832,162.24712419998832,163.6148705999367,g,0,1.3641440999927,None,163.61519279994536,163.62998659990262,164.62991199991666,164.61406409996562,,,,,,,,,,,,,,,,,,,sub-794237,001,2024-03-11_15h34.37.366,stroop_test,2023.2.3,60.067852645543375,2024-03-11 15h34.51.453020 +0100,
,,,,rot,yellow,g,0,,,,,,,,,1,3,15,3,,,,,164.62991199991666,,,,,,,,,,,,,,,,,164.6143825999461,165.42969839996658,166.22946029994637,166.2136051999405,,,,,,,,,,,,,,,,166.2136276999954,166.22946029994637,166.22946029994637,168.27984929992817,g,1,2.0376884000143036,None,168.28014689998236,168.2957339999266,169.2956379998941,169.27942579996306,,,,,,,,,,,,,,,,,,,sub-794237,001,2024-03-11_15h34.37.366,stroop_test,2023.2.3,60.067852645543375,2024-03-11 15h34.51.453020 +0100,
,,,,rot,red,r,1,,,,,,,,,1,4,16,1,,,,,169.2956379998941,,,,,,,,,,,,,,,,,169.27980999997817,169.39577809988987,170.19544629997108,170.17968459997792,,,,,,,,,,,,,,,,170.1797177999979,170.19544629997108,170.19544629997108,171.36280509992503,r,1,1.1581532000564039,None,171.36313279997557,171.37855379993562,172.37818909995258,172.3625334999524,,,,,,,,,,,,,,,,,,,sub-794237,001,2024-03-11_15h34.37.366,stroop_test,2023.2.3,60.067852645543375,2024-03-11 15h34.51.453020 +0100,
,,,,blau,yellow,g,0,,,,,,,,,1,5,17,7,,,,,172.37818909995258,,,,,,,,,,,,,,,,,172.36292479990516,173.17811229999643,173.97787199995946,173.96240359998774,,,,,,,,,,,,,,,,173.96243309997953,173.97787199995946,173.97787199995946,176.41203539993148,g,1,2.429958999971859,None,176.41226059990004,176.42743779998273,177.4270639999304,177.41120299999602,,,,,,,,,,,,,,,,,,,sub-794237,001,2024-03-11_15h34.37.366,stroop_test,2023.2.3,60.067852645543375,2024-03-11 15h34.51.453020 +0100,
,,,,gelb,yellow,g,1,,,,,,,,,1,6,18,10,,,,,177.4270639999304,,,,,,,,,,,,,,,,,177.41156129993033,178.2270436999388,179.02677249989938,179.0107624999946,,,,,,,,,,,,,,,,179.01078149990644,179.02677249989938,179.02677249989938,179.57784829998855,g,1,0.5491515999892727,None,179.57824439997785,179.59355009999126,180.59328489995096,180.57750649994705,,,,,,,,,,,,,,,,,,,sub-794237,001,2024-03-11_15h34.37.366,stroop_test,2023.2.3,60.067852645543375,2024-03-11 15h34.51.453020 +0100,
,,,,gelb,red,r,0,,,,,,,,,1,7,19,8,,,,,180.59328489995096,,,,,,,,,,,,,,,,,180.57795249996707,181.7930015999591,182.59275229997002,182.5766530999681,,,,,,,,,,,,,,,,182.57667409989517,182.59275229997002,182.59275229997002,184.31006499996874,r,1,1.7014981999527663,None,184.3104195999913,184.32568359992,185.3252763999626,185.3095677999081,,,,,,,,,,,,,,,,,,,sub-794237,001,2024-03-11_15h34.37.366,stroop_test,2023.2.3,60.067852645543375,2024-03-11 15h34.51.453020 +0100,
,,,,blau,blue,b,1,,,,,,,,,1,8,20,6,,,,,185.3252763999626,,,,,,,,,,,,,,,,,185.30987849994563,185.67528029996902,186.47512769990135,186.45977099996526,,,,,,,,,,,,,,,,186.45980209996924,186.47512769990135,186.47512769990135,187.57615239999723,b,1,1.085566700086929,None,187.57660009991378,187.5917414999567,188.59150559990667,188.57599899999332,,,,,,,,,,,,,,,,,,,sub-794237,001,2024-03-11_15h34.37.366,stroop_test,2023.2.3,60.067852645543375,2024-03-11 15h34.51.453020 +0100,
,,,,blau,red,r,0,,,,,,,,,1,9,21,4,,,,,188.59150559990667,,,,,,,,,,,,,,,,,188.57628659997135,189.39142459991854,190.1913598999381,190.17528919992037,,,,,,,,,,,,,,,,190.17531520000193,190.1913598999381,190.1913598999381,192.07489309995435,r,1,1.8690738999284804,None,192.0752450999571,192.09086609992664,193.09063469991088,193.0746080999961,,,,,,,,,,,,,,,,,,,sub-794237,001,2024-03-11_15h34.37.366,stroop_test,2023.2.3,60.067852645543375,2024-03-11 15h34.51.453020 +0100,
,,,,blau,blue,b,1,,,,,,,,,1,10,22,5,,,,,193.09063469991088,,,,,,,,,,,,,,,,,193.07503639999777,193.89046499994583,194.69021639996208,194.6740588999819,,,,,,,,,,,,,,,,194.6740805999143,194.69021639996208,194.69021639996208,198.22400039993227,b,1,3.52839559991844,None,198.22445219999645,198.2394357000012,199.23922339989804,199.22333729988895,,,,,,,,,,,,,,,,,,,sub-794237,001,2024-03-11_15h34.37.366,stroop_test,2023.2.3,60.067852645543375,2024-03-11 15h34.51.453020 +0100,
,,,,gelb,yellow,g,1,,,,,,,,,1,11,23,11,,,,,199.23922339989804,,,,,,,,,,,,,,,,,199.22367239999585,199.33937019994482,200.1391351999482,200.12304059998132,,,,,,,,,,,,,,,,200.1230607999023,200.1391351999482,200.1391351999482,201.45738969999366,g,1,1.3164866999723017,None,201.45782919996418,201.47217519988772,202.47171049995814,202.45572969992645,,,,,,,,,,,,,,,,,,,sub-794237,001,2024-03-11_15h34.37.366,stroop_test,2023.2.3,60.067852645543375,2024-03-11 15h34.51.453020 +0100,
,,,,,,,,,,,,,,,,,,,,,,,,,,,,,,,,,,,,,,,,,,,,,,,,,,,,,,,,,,,,,,,,,,,,,,,,202.45579019992147,202.47171049995814,202.47171049995814,203.85604659991805,space,1.378268099972047,None,,,,,,,,,,,,sub-794237,001,2024-03-11_15h34.37.366,stroop_test,2023.2.3,60.067852645543375,2024-03-11 15h34.51.453020 +0100,
,,,,,,,,gelb,red,r,0,,,,,,,,,0,0,0,8,203.87151629989967,,,,,,,,,,,,,,,,,203.86128239997197,204.22144609992392,205.02140019997023,205.00543929997366,,,,,,,,,,,,,,,,,,,,,,,,,,,,,,,,,,,205.00545969989616,205.02140019997023,205.02140019997023,207.12177639990114,r,1,2.0967762999935076,None,,,,sub-794237,001,2024-03-11_15h34.37.366,stroop_test,2023.2.3,60.067852645543375,2024-03-11 15h34.51.453020 +0100,
,,,,,,,,gelb,yellow,g,1,,,,,,,,,0,1,1,11,207.13751439994667,,,,,,,,,,,,,,,,,207.1226191999158,208.33741539996117,209.13718489999883,209.12148709991015,,,,,,,,,,,,,,,,,,,,,,,,,,,,,,,,,,,209.1215115999803,209.13718489999883,209.13718489999883,210.33824289997574,g,1,1.1958303999854252,None,,,,sub-794237,001,2024-03-11_15h34.37.366,stroop_test,2023.2.3,60.067852645543375,2024-03-11 15h34.51.453020 +0100,
,,,,,,,,gelb,blue,b,0,,,,,,,,,0,2,2,9,210.35379209998064,,,,,,,,,,,,,,,,,210.33891019993462,211.15352109994274,211.9536959999241,211.93724709993694,,,,,,,,,,,,,,,,,,,,,,,,,,,,,,,,,,,211.93726619996596,211.9536959999241,211.9536959999241,213.33708459988702,b,1,1.3702309000073,None,,,,sub-794237,001,2024-03-11_15h34.37.366,stroop_test,2023.2.3,60.067852645543375,2024-03-11 15h34.51.453020 +0100,
,,,,,,,,blau,red,r,0,,,,,,,,,0,3,3,4,213.35280679992866,,,,,,,,,,,,,,,,,213.33753739995882,213.45290619996376,214.252788499929,214.23688599991146,,,,,,,,,,,,,,,,,,,,,,,,,,,,,,,,,,,214.2369107999839,214.252788499929,214.252788499929,215.37014119990636,r,1,1.1067668000468984,None,,,,sub-794237,001,2024-03-11_15h34.37.366,stroop_test,2023.2.3,60.067852645543375,2024-03-11 15h34.51.453020 +0100,
,,,,,,,,rot,red,r,1,,,,,,,,,0,4,4,0,215.38582009996753,,,,,,,,,,,,,,,,,215.370703099994,215.48588429996744,216.28560289996676,216.26949849992525,,,,,,,,,,,,,,,,,,,,,,,,,,,,,,,,,,,216.26951969997026,216.28560289996676,216.28560289996676,216.93639829999302,r,1,0.6365918999072164,None,,,,sub-794237,001,2024-03-11_15h34.37.366,stroop_test,2023.2.3,60.067852645543375,2024-03-11 15h34.51.453020 +0100,
,,,,,,,,blau,blue,b,1,,,,,,,,,0,5,5,5,216.95215649995953,,,,,,,,,,,,,,,,,216.93691079993732,217.30208299995866,218.101824299898,218.0860054999357,,,,,,,,,,,,,,,,,,,,,,,,,,,,,,,,,,,218.0860285999952,218.101824299898,218.101824299898,219.1197317999322,b,1,1.015218299929984,None,,,,sub-794237,001,2024-03-11_15h34.37.366,stroop_test,2023.2.3,60.067852645543375,2024-03-11 15h34.51.453020 +0100,
,,,,,,,,blau,blue,b,1,,,,,,,,,0,6,6,6,219.13505579996854,,,,,,,,,,,,,,,,,219.1206458999077,219.9348777999403,220.73486359999515,220.71845069993287,,,,,,,,,,,,,,,,,,,,,,,,,,,,,,,,,,,220.7184782999102,220.73486359999515,220.73486359999515,221.35265209991485,b,1,0.61254070000723,None,,,,sub-794237,001,2024-03-11_15h34.37.366,stroop_test,2023.2.3,60.067852645543375,2024-03-11 15h34.51.453020 +0100,
,,,,,,,,rot,blue,b,0,,,,,,,,,0,7,7,2,221.3677910999395,,,,,,,,,,,,,,,,,221.35335369990207,221.71780009998474,222.51754219993018,222.50188009999692,,,,,,,,,,,,,,,,,,,,,,,,,,,,,,,,,,,222.50190039991867,222.51754219993018,222.51754219993018,223.38514919998124,b,1,0.8634998999768868,None,,,,sub-794237,001,2024-03-11_15h34.37.366,stroop_test,2023.2.3,60.067852645543375,2024-03-11 15h34.51.453020 +0100,
,,,,,,,,gelb,yellow,g,1,,,,,,,,,0,8,8,10,223.401020099991,,,,,,,,,,,,,,,,,223.3856638999423,224.2007032999536,225.0005235999124,224.9844970999984,,,,,,,,,,,,,,,,,,,,,,,,,,,,,,,,,,,224.98451849992853,225.0005235999124,225.0005235999124,225.93520909990184,g,1,0.9303364000516012,None,,,,sub-794237,001,2024-03-11_15h34.37.366,stroop_test,2023.2.3,60.067852645543375,2024-03-11 15h34.51.453020 +0100,
,,,,,,,,blau,yellow,g,0,,,,,,,,,0,9,9,7,225.95016079989728,,,,,,,,,,,,,,,,,225.93602899997495,226.75011759996414,227.54987429990433,227.5339086999884,,,,,,,,,,,,,,,,,,,,,,,,,,,,,,,,,,,227.53393369994592,227.54987429990433,227.54987429990433,228.15087659994606,g,1,0.5850864999229088,None,,,,sub-794237,001,2024-03-11_15h34.37.366,stroop_test,2023.2.3,60.067852645543375,2024-03-11 15h34.51.453020 +0100,
,,,,,,,,rot,red,r,1,,,,,,,,,0,10,10,1,228.16641889989842,,,,,,,,,,,,,,,,,228.1515248999931,229.36606689996552,230.16602279990911,230.150012099999,,,,,,,,,,,,,,,,,,,,,,,,,,,,,,,,,,,230.15003239992075,230.16602279990911,230.16602279990911,231.50011139991693,r,1,1.3231497999513522,None,,,,sub-794237,001,2024-03-11_15h34.37.366,stroop_test,2023.2.3,60.067852645543375,2024-03-11 15h34.51.453020 +0100,
,,,,,,,,rot,yellow,g,0,,,,,,,,,0,11,11,3,231.51553539989982,,,,,,,,,,,,,,,,,231.50075799995102,232.3152794999769,233.1153111999156,233.0994258999126,,,,,,,,,,,,,,,,,,,,,,,,,,,,,,,,,,,233.09944699995685,233.1153111999156,233.1153111999156,234.765755899949,g,1,1.644166500074789,None,,,,sub-794237,001,2024-03-11_15h34.37.366,stroop_test,2023.2.3,60.067852645543375,2024-03-11 15h34.51.453020 +0100,
,,,,,,,,blau,blue,b,1,,,,,,,,,1,0,12,5,234.78166099998634,,,,,,,,,,,,,,,,,234.7662766999565,235.58147259999532,236.3814525998896,236.36551979999058,,,,,,,,,,,,,,,,,,,,,,,,,,,,,,,,,,,236.36554729996715,236.3814525998896,236.3814525998896,237.3155818999512,b,1,0.9182713999180123,None,,,,sub-794237,001,2024-03-11_15h34.37.366,stroop_test,2023.2.3,60.067852645543375,2024-03-11 15h34.51.453020 +0100,
,,,,,,,,blau,yellow,g,0,,,,,,,,,1,1,13,7,237.33128129993565,,,,,,,,,,,,,,,,,237.31628649996128,238.13101239991374,238.93078649998643,238.91481729992665,,,,,,,,,,,,,,,,,,,,,,,,,,,,,,,,,,,238.91483959998004,238.93078649998643,238.93078649998643,240.4983156999806,g,1,1.5503236000658944,None,,,,sub-794237,001,2024-03-11_15h34.37.366,stroop_test,2023.2.3,60.067852645543375,2024-03-11 15h34.51.453020 +0100,
,,,,,,,,blau,red,r,0,,,,,,,,,1,2,14,4,240.51359589991625,,,,,,,,,,,,,,,,,240.49901039991528,241.31355749990325,242.11323369992897,242.0976041998947,,,,,,,,,,,,,,,,,,,,,,,,,,,,,,,,,,,242.09762639994733,242.11323369992897,242.11323369992897,243.1809254999971,r,1,1.0639732999261469,None,,,,sub-794237,001,2024-03-11_15h34.37.366,stroop_test,2023.2.3,60.067852645543375,2024-03-11 15h34.51.453020 +0100,
,,,,,,,,gelb,yellow,g,1,,,,,,,,,1,3,15,11,243.19664769992232,,,,,,,,,,,,,,,,,243.1814271999756,244.39638609997928,245.19627769989893,245.1802139999345,,,,,,,,,,,,,,,,,,,,,,,,,,,,,,,,,,,245.18023659999017,245.19627769989893,245.19627769989893,246.13052969996352,g,1,0.9216573999729007,None,,,,sub-794237,001,2024-03-11_15h34.37.366,stroop_test,2023.2.3,60.067852645543375,2024-03-11 15h34.51.453020 +0100,
,,,,,,,,rot,red,r,1,,,,,,,,,1,4,16,1,246.14634119998664,,,,,,,,,,,,,,,,,246.13116239989176,246.94583409989718,247.74568279995583,247.72970439994242,,,,,,,,,,,,,,,,,,,,,,,,,,,,,,,,,,,247.72973069990985,247.74568279995583,247.74568279995583,248.64634559990373,r,1,0.8930894000222906,None,,,,sub-794237,001,2024-03-11_15h34.37.366,stroop_test,2023.2.3,60.067852645543375,2024-03-11 15h34.51.453020 +0100,
,,,,,,,,rot,yellow,g,0,,,,,,,,,1,5,17,3,248.66202599997632,,,,,,,,,,,,,,,,,248.64690669998527,248.7619626999367,249.56166679994203,249.54571059998125,,,,,,,,,,,,,,,,,,,,,,,,,,,,,,,,,,,249.5457326999167,249.56166679994203,249.56166679994203,250.87933529994916,g,1,1.3012486000079662,None,,,,sub-794237,001,2024-03-11_15h34.37.366,stroop_test,2023.2.3,60.067852645543375,2024-03-11 15h34.51.453020 +0100,
,,,,,,,,rot,blue,b,0,,,,,,,,,1,6,18,2,250.89490899990778,,,,,,,,,,,,,,,,,250.8800476999022,251.24501849990338,252.04481489991304,252.02874409989454,,,,,,,,,,,,,,,,,,,,,,,,,,,,,,,,,,,252.0287669999525,252.04481489991304,252.04481489991304,253.07884109998122,b,1,1.022970800055191,None,,,,sub-794237,001,2024-03-11_15h34.37.366,stroop_test,2023.2.3,60.067852645543375,2024-03-11 15h34.51.453020 +0100,
,,,,,,,,gelb,yellow,g,1,,,,,,,,,1,7,19,10,253.094514299999,,,,,,,,,,,,,,,,,253.07943939999677,254.29446059989277,255.09402749990113,255.07825299992692,,,,,,,,,,,,,,,,,,,,,,,,,,,,,,,,,,,255.07827539998107,255.09402749990113,255.09402749990113,255.97806909994688,g,1,0.8688420999096707,None,,,,sub-794237,001,2024-03-11_15h34.37.366,stroop_test,2023.2.3,60.067852645543375,2024-03-11 15h34.51.453020 +0100,
,,,,,,,,gelb,blue,b,0,,,,,,,,,1,8,20,9,255.99367109988816,,,,,,,,,,,,,,,,,255.9786790999351,256.7938734999625,257.59354959998745,257.57742039998993,,,,,,,,,,,,,,,,,,,,,,,,,,,,,,,,,,,257.57744099991396,257.59354959998745,257.59354959998745,258.7278834999306,b,1,1.1315240000840276,None,,,,sub-794237,001,2024-03-11_15h34.37.366,stroop_test,2023.2.3,60.067852645543375,2024-03-11 15h34.51.453020 +0100,
,,,,,,,,blau,blue,b,1,,,,,,,,,1,9,21,6,258.74319349997677,,,,,,,,,,,,,,,,,258.7285403999267,259.5432157999603,260.34310229995754,260.3269321999978,,,,,,,,,,,,,,,,,,,,,,,,,,,,,,,,,,,260.32695249991957,260.34310229995754,260.34310229995754,261.07697329996154,b,1,0.7210004000226036,None,,,,sub-794237,001,2024-03-11_15h34.37.366,stroop_test,2023.2.3,60.067852645543375,2024-03-11 15h34.51.453020 +0100,
,,,,,,,,rot,red,r,1,,,,,,,,,1,10,22,0,261.0927825999679,,,,,,,,,,,,,,,,,261.077559899888,261.89270659990143,262.6923756999895,262.6765472999541,,,,,,,,,,,,,,,,,,,,,,,,,,,,,,,,,,,262.6765702998964,262.6923756999895,262.6923756999895,263.7096843998879,r,1,1.0020759999752045,None,,,,sub-794237,001,2024-03-11_15h34.37.366,stroop_test,2023.2.3,60.067852645543375,2024-03-11 15h34.51.453020 +0100,
,,,,,,,,gelb,red,r,0,,,,,,,,,1,11,23,8,263.7255992999999,,,,,,,,,,,,,,,,,263.7102544999216,264.5253698999295,265.32516219990794,265.3090705999639,,,,,,,,,,,,,,,,,,,,,,,,,,,,,,,,,,,265.30908979999367,265.32516219990794,265.32516219990794,266.4590673999628,g,0,1.1316410000436008,None,,,,sub-794237,001,2024-03-11_15h34.37.366,stroop_test,2023.2.3,60.067852645543375,2024-03-11 15h34.51.453020 +0100,
,,,,,,,,blau,blue,b,1,,,,,,,,,2,0,24,5,266.47511659993324,,,,,,,,,,,,,,,,,266.4597304998897,266.8249911000021,267.6247543999925,267.60865839989856,,,,,,,,,,,,,,,,,,,,,,,,,,,,,,,,,,,267.60867759992834,267.6247543999925,267.6247543999925,269.22529119998217,b,1,1.587690099957399,None,,,,sub-794237,001,2024-03-11_15h34.37.366,stroop_test,2023.2.3,60.067852645543375,2024-03-11 15h34.51.453020 +0100,
,,,,,,,,gelb,yellow,g,1,,,,,,,,,2,1,25,10,269.2409018999897,,,,,,,,,,,,,,,,,269.22583429992665,270.04089979990385,270.84080809995066,270.8248354999814,,,,,,,,,,,,,,,,,,,,,,,,,,,,,,,,,,,270.8248580999207,270.84080809995066,270.84080809995066,272.34103659994435,g,1,1.497033099993132,None,,,,sub-794237,001,2024-03-11_15h34.37.366,stroop_test,2023.2.3,60.067852645543375,2024-03-11 15h34.51.453020 +0100,
,,,,,,,,blau,red,r,0,,,,,,,,,2,2,26,4,272.35682019998785,,,,,,,,,,,,,,,,,272.3415311999852,273.5568019999191,274.3565780998906,274.34065289993305,,,,,,,,,,,,,,,,,,,,,,,,,,,,,,,,,,,274.340673699975,274.3565780998906,274.3565780998906,276.0071702999994,r,1,1.6442005999851972,None,,,,sub-794237,001,2024-03-11_15h34.37.366,stroop_test,2023.2.3,60.067852645543375,2024-03-11 15h34.51.453020 +0100,
,,,,,,,,blau,blue,b,1,,,,,,,,,2,3,27,6,276.0229137999704,,,,,,,,,,,,,,,,,276.00776969990693,277.2227790999459,278.02253259997815,278.0063801999204,,,,,,,,,,,,,,,,,,,,,,,,,,,,,,,,,,,278.0064037999837,278.02253259997815,278.02253259997815,279.673530299915,b,1,1.6404520999640226,None,,,,sub-794237,001,2024-03-11_15h34.37.366,stroop_test,2023.2.3,60.067852645543375,2024-03-11 15h34.51.453020 +0100,
,,,,,,,,rot,red,r,1,,,,,,,,,2,4,28,0,279.68879529996775,,,,,,,,,,,,,,,,,279.67415039998014,280.03885459993035,280.8387106999289,280.8227095999755,,,,,,,,,,,,,,,,,,,,,,,,,,,,,,,,,,,280.82273089990485,280.8387106999289,280.8387106999289,282.7391269999789,r,1,1.8919263000134379,None,,,,sub-794237,001,2024-03-11_15h34.37.366,stroop_test,2023.2.3,60.067852645543375,2024-03-11 15h34.51.453020 +0100,
,,,,,,,,gelb,red,r,0,,,,,,,,,2,5,29,8,282.7546616999898,,,,,,,,,,,,,,,,,282.7397230999777,282.8548169999849,283.6553399999393,283.6388572999276,,,,,,,,,,,,,,,,,,,,,,,,,,,,,,,,,,,283.63888329989277,283.6553399999393,283.6553399999393,285.988415199914,r,1,2.323018200113438,None,,,,sub-794237,001,2024-03-11_15h34.37.366,stroop_test,2023.2.3,60.067852645543375,2024-03-11 15h34.51.453020 +0100,
,,,,,,,,gelb,blue,b,0,,,,,,,,,2,6,30,9,286.0040474999696,,,,,,,,,,,,,,,,,285.9889683999354,286.354013199918,287.1538738999516,287.1380159999244,,,,,,,,,,,,,,,,,,,,,,,,,,,,,,,,,,,287.1380384999793,287.1538738999516,287.1538738999516,288.6211707999464,b,1,1.4592855999944732,None,,,,sub-794237,001,2024-03-11_15h34.37.366,stroop_test,2023.2.3,60.067852645543375,2024-03-11 15h34.51.453020 +0100,
,,,,,,,,rot,red,r,1,,,,,,,,,2,7,31,1,288.636837799917,,,,,,,,,,,,,,,,,288.6217135998886,288.7368755999487,289.5366570999613,289.5211525999475,,,,,,,,,,,,,,,,,,,,,,,,,,,,,,,,,,,289.5211665999377,289.5366570999613,289.5366570999613,290.7372481999919,r,1,1.1905083999736235,None,,,,sub-794237,001,2024-03-11_15h34.37.366,stroop_test,2023.2.3,60.067852645543375,2024-03-11 15h34.51.453020 +0100,
,,,,,,,,rot,blue,b,0,,,,,,,,,2,8,32,2,290.75306389993057,,,,,,,,,,,,,,,,,290.73781819990836,290.8530294999946,291.65286099992227,291.6369248999981,,,,,,,,,,,,,,,,,,,,,,,,,,,,,,,,,,,291.6369466999313,291.65286099992227,291.65286099992227,292.9034429999301,b,1,1.2338849999941885,None,,,,sub-794237,001,2024-03-11_15h34.37.366,stroop_test,2023.2.3,60.067852645543375,2024-03-11 15h34.51.453020 +0100,
,,,,,,,,gelb,yellow,g,1,,,,,,,,,2,9,33,11,292.9194203999359,,,,,,,,,,,,,,,,,292.9038222999079,293.71925259998534,294.5189379999647,294.50315109989606,,,,,,,,,,,,,,,,,,,,,,,,,,,,,,,,,,,294.5031788999913,294.5189379999647,294.5189379999647,296.5364086999325,g,1,2.001691799960099,None,,,,sub-794237,001,2024-03-11_15h34.37.366,stroop_test,2023.2.3,60.067852645543375,2024-03-11 15h34.51.453020 +0100,
,,,,,,,,blau,yellow,g,0,,,,,,,,,2,10,34,7,296.55181549990084,,,,,,,,,,,,,,,,,296.53713539999444,297.7515093999682,298.55142479995266,298.5354844999965,,,,,,,,,,,,,,,,,,,,,,,,,,,,,,,,,,,298.53550409991294,298.55142479995266,298.55142479995266,299.485961999977,g,1,0.9333706999896094,None,,,,sub-794237,001,2024-03-11_15h34.37.366,stroop_test,2023.2.3,60.067852645543375,2024-03-11 15h34.51.453020 +0100,
,,,,,,,,rot,yellow,g,0,,,,,,,,,2,11,35,3,299.5010980999796,,,,,,,,,,,,,,,,,299.48652929998934,300.30091619992163,301.10086689994205,301.0849653999321,,,,,,,,,,,,,,,,,,,,,,,,,,,,,,,,,,,301.0849896,301.10086689994205,301.10086689994205,301.60187799995765,g,1,0.4990306000690907,None,,,,sub-794237,001,2024-03-11_15h34.37.366,stroop_test,2023.2.3,60.067852645543375,2024-03-11 15h34.51.453020 +0100,
,,,,,,,,gelb,yellow,g,1,,,,,,,,,3,0,36,11,301.61745069990866,,,,,,,,,,,,,,,,,301.60251649993006,301.9676655998919,302.7671610999387,302.7511344999075,,,,,,,,,,,,,,,,,,,,,,,,,,,,,,,,,,,302.75115589995403,302.7671610999387,302.7671610999387,303.28471029992215,g,1,0.5077333999797702,None,,,,sub-794237,001,2024-03-11_15h34.37.366,stroop_test,2023.2.3,60.067852645543375,2024-03-11 15h34.51.453020 +0100,
,,,,,,,,rot,yellow,g,0,,,,,,,,,3,1,37,3,303.3002906999318,,,,,,,,,,,,,,,,,303.2853078999324,304.1002230999293,304.8999973000027,304.88422889995854,,,,,,,,,,,,,,,,,,,,,,,,,,,,,,,,,,,304.88425009988714,304.8999973000027,304.8999973000027,305.2843768999446,g,1,0.37834499997552484,None,,,,sub-794237,001,2024-03-11_15h34.37.366,stroop_test,2023.2.3,60.067852645543375,2024-03-11 15h34.51.453020 +0100,
,,,,,,,,blau,blue,b,1,,,,,,,,,3,2,38,6,305.29973999992944,,,,,,,,,,,,,,,,,305.28495839994866,305.4000769999111,306.19965769990813,306.18431389995385,,,,,,,,,,,,,,,,,,,,,,,,,,,,,,,,,,,306.1843479999807,306.19965769990813,306.19965769990813,307.10039969999343,b,1,0.897410299978219,None,,,,sub-794237,001,2024-03-11_15h34.37.366,stroop_test,2023.2.3,60.067852645543375,2024-03-11 15h34.51.453020 +0100,
,,,,,,,,rot,red,r,1,,,,,,,,,3,3,39,1,307.11639229999855,,,,,,,,,,,,,,,,,307.10095999995247,307.4662061999552,308.2659437999828,308.24997549992986,,,,,,,,,,,,,,,,,,,,,,,,,,,,,,,,,,,308.24999549996573,308.2659437999828,308.2659437999828,308.8836365999887,r,1,0.6099224999779835,None,,,,sub-794237,001,2024-03-11_15h34.37.366,stroop_test,2023.2.3,60.067852645543375,2024-03-11 15h34.51.453020 +0100,
,,,,,,,,rot,blue,b,0,,,,,,,,,3,4,40,2,308.89909169997554,,,,,,,,,,,,,,,,,308.8842366999015,310.09888189996127,310.89883939991705,310.88320229994133,,,,,,,,,,,,,,,,,,,,,,,,,,,,,,,,,,,310.88323559996206,310.89883939991705,310.89883939991705,311.8334291999927,b,1,0.9332976000150666,None,,,,sub-794237,001,2024-03-11_15h34.37.366,stroop_test,2023.2.3,60.067852645543375,2024-03-11 15h34.51.453020 +0100,
,,,,,,,,blau,blue,b,1,,,,,,,,,3,5,41,5,311.84840229991823,,,,,,,,,,,,,,,,,311.8340787999332,312.19849209999666,312.99809249991085,312.9824394999305,,,,,,,,,,,,,,,,,,,,,,,,,,,,,,,,,,,312.9824624999892,312.99809249991085,312.99809249991085,313.43274059996475,b,1,0.4327169000171125,None,,,,sub-794237,001,2024-03-11_15h34.37.366,stroop_test,2023.2.3,60.067852645543375,2024-03-11 15h34.51.453020 +0100,
,,,,,,,,gelb,red,r,0,,,,,,,,,3,6,42,8,313.44803159998264,,,,,,,,,,,,,,,,,313.4333470999263,314.24800249992404,315.0478438999271,315.031843499979,,,,,,,,,,,,,,,,,,,,,,,,,,,,,,,,,,,315.03186329989694,315.0478438999271,315.0478438999271,315.99857319996227,r,1,0.9336083999369293,None,,,,sub-794237,001,2024-03-11_15h34.37.366,stroop_test,2023.2.3,60.067852645543375,2024-03-11 15h34.51.453020 +0100,
,,,,,,,,rot,red,r,1,,,,,,,,,3,7,43,0,316.0143806999549,,,,,,,,,,,,,,,,,315.99918589997105,316.8142313999124,317.61399469990283,317.5979767999379,,,,,,,,,,,,,,,,,,,,,,,,,,,,,,,,,,,317.5979982999852,317.61399469990283,317.61399469990283,318.1646913998993,r,1,0.535736299934797,None,,,,sub-794237,001,2024-03-11_15h34.37.366,stroop_test,2023.2.3,60.067852645543375,2024-03-11 15h34.51.453020 +0100,
,,,,,,,,blau,red,r,0,,,,,,,,,3,8,44,4,318.1805873999838,,,,,,,,,,,,,,,,,318.1651526999194,318.28063429996837,319.08048959996086,319.064598799916,,,,,,,,,,,,,,,,,,,,,,,,,,,,,,,,,,,319.0646217999747,319.08048959996086,319.08048959996086,319.4814220999833,r,1,0.39738420001231134,None,,,,sub-794237,001,2024-03-11_15h34.37.366,stroop_test,2023.2.3,60.067852645543375,2024-03-11 15h34.51.453020 +0100,
,,,,,,,,blau,yellow,g,0,,,,,,,,,3,9,45,7,319.4967445998918,,,,,,,,,,,,,,,,,319.4819496999262,320.29674349993,321.096596499905,321.0807385999942,,,,,,,,,,,,,,,,,,,,,,,,,,,,,,,,,,,321.08076019992586,321.096596499905,321.096596499905,322.11423809989356,g,1,1.0130191000644118,None,,,,sub-794237,001,2024-03-11_15h34.37.366,stroop_test,2023.2.3,60.067852645543375,2024-03-11 15h34.51.453020 +0100,
,,,,,,,,gelb,yellow,g,1,,,,,,,,,3,10,46,10,322.1299367999891,,,,,,,,,,,,,,,,,322.1148143999744,323.3296275999164,324.12924939999357,324.1130076999543,,,,,,,,,,,,,,,,,,,,,,,,,,,,,,,,,,,324.11302109993994,324.12924939999357,324.12924939999357,324.6136301999213,g,1,0.4693966000340879,None,,,,sub-794237,001,2024-03-11_15h34.37.366,stroop_test,2023.2.3,60.067852645543375,2024-03-11 15h34.51.453020 +0100,
,,,,,,,,gelb,blue,b,0,,,,,,,,,3,11,47,9,324.6300743999891,,,,,,,,,,,,,,,,,324.6142523000017,325.4291854999028,326.22890129999723,326.21294139989186,,,,,,,,,,,,,,,,,,,,,,,,,,,,,,,,,,,326.21298489999026,326.22890129999723,326.22890129999723,328.26283269992564,b,1,2.0220532999373972,None,,,,sub-794237,001,2024-03-11_15h34.37.366,stroop_test,2023.2.3,60.067852645543375,2024-03-11 15h34.51.453020 +0100,
,,,,,,,,blau,yellow,g,0,,,,,,,,,4,0,48,7,328.27841909998097,,,,,,,,,,,,,,,,,328.26341069990303,328.62849389994517,329.42824619996827,329.41231129993685,,,,,,,,,,,,,,,,,,,,,,,,,,,,,,,,,,,329.4123339999933,329.42824619996827,329.42824619996827,330.9121069998946,g,1,1.4738073999760672,None,,,,sub-794237,001,2024-03-11_15h34.37.366,stroop_test,2023.2.3,60.067852645543375,2024-03-11 15h34.51.453020 +0100,
,,,,,,,,rot,red,r,1,,,,,,,,,4,1,49,0,330.9278310999507,,,,,,,,,,,,,,,,,330.9127144999802,332.1277333999751,332.9275315999985,332.911538299988,,,,,,,,,,,,,,,,,,,,,,,,,,,,,,,,,,,332.9115597999189,332.9275315999985,332.9275315999985,333.89461699989624,r,1,0.9611119999317452,None,,,,sub-794237,001,2024-03-11_15h34.37.366,stroop_test,2023.2.3,60.067852645543375,2024-03-11 15h34.51.453020 +0100,
,,,,,,,,gelb,blue,b,0,,,,,,,,,4,2,50,9,333.9105320998933,,,,,,,,,,,,,,,,,333.8951386999106,334.0107515999116,334.81040989991743,334.79435739992186,,,,,,,,,,,,,,,,,,,,,,,,,,,,,,,,,,,334.7943790999707,334.81040989991743,334.81040989991743,335.8609996999148,b,1,1.037020399933681,None,,,,sub-794237,001,2024-03-11_15h34.37.366,stroop_test,2023.2.3,60.067852645543375,2024-03-11 15h34.51.453020 +0100,
,,,,,,,,rot,blue,b,0,,,,,,,,,4,3,51,2,335.8770224999171,,,,,,,,,,,,,,,,,335.8615523999324,336.2268904999364,337.02667479997035,337.01059029996395,,,,,,,,,,,,,,,,,,,,,,,,,,,,,,,,,,,337.0106113998918,337.02667479997035,337.02667479997035,337.9607614999404,b,1,0.9261614000424743,None,,,,sub-794237,001,2024-03-11_15h34.37.366,stroop_test,2023.2.3,60.067852645543375,2024-03-11 15h34.51.453020 +0100,
,,,,,,,,gelb,yellow,g,1,,,,,,,,,4,4,52,10,337.9763732999563,,,,,,,,,,,,,,,,,337.9613267999375,339.1763157999376,339.9760314999148,339.9601606999058,,,,,,,,,,,,,,,,,,,,,,,,,,,,,,,,,,,339.9601847999729,339.9760314999148,339.9760314999148,340.9267987998901,g,1,0.9466776999179274,None,,,,sub-794237,001,2024-03-11_15h34.37.366,stroop_test,2023.2.3,60.067852645543375,2024-03-11 15h34.51.453020 +0100,
,,,,,,,,blau,blue,b,1,,,,,,,,,4,5,53,5,340.94238249992486,,,,,,,,,,,,,,,,,340.9273034998914,341.0423441999592,341.8421380999498,341.8260677999351,,,,,,,,,,,,,,,,,,,,,,,,,,,,,,,,,,,341.8260858999565,341.8421380999498,341.8421380999498,342.72655539994594,b,1,0.8796170999994501,None,,,,sub-794237,001,2024-03-11_15h34.37.366,stroop_test,2023.2.3,60.067852645543375,2024-03-11 15h34.51.453020 +0100,
,,,,,,,,rot,red,r,1,,,,,,,,,4,6,54,1,342.7420014999807,,,,,,,,,,,,,,,,,342.727163799922,342.8420602999395,343.6418949998915,343.6257677999092,,,,,,,,,,,,,,,,,,,,,,,,,,,,,,,,,,,343.6257822999032,343.6418949998915,343.6418949998915,345.9922327999957,r,1,2.3469132999889553,None,,,,sub-794237,001,2024-03-11_15h34.37.366,stroop_test,2023.2.3,60.067852645543375,2024-03-11 15h34.51.453020 +0100,
,,,,,,,,rot,yellow,g,0,,,,,,,,,4,7,55,3,346.00816989992745,,,,,,,,,,,,,,,,,345.99273509997874,346.1083325999789,346.9079525999259,346.89196579996496,,,,,,,,,,,,,,,,,,,,,,,,,,,,,,,,,,,346.8919879999012,346.9079525999259,346.9079525999259,348.3258941998938,r,0,1.416648600017652,None,,,,sub-794237,001,2024-03-11_15h34.37.366,stroop_test,2023.2.3,60.067852645543375,2024-03-11 15h34.51.453020 +0100,
,,,,,,,,gelb,red,r,0,,,,,,,,,4,8,56,8,348.34072839992587,,,,,,,,,,,,,,,,,348.3264708999777,348.69075309997424,349.4904896999942,349.47455619997345,,,,,,,,,,,,,,,,,,,,,,,,,,,,,,,,,,,349.47457739990205,349.4904896999942,349.4904896999942,353.70797259989195,r,1,4.1999674999387935,None,,,,sub-794237,001,2024-03-11_15h34.37.366,stroop_test,2023.2.3,60.067852645543375,2024-03-11 15h34.51.453020 +0100,
,,,,,,,,blau,red,r,0,,,,,,,,,4,9,57,4,353.7230955999112,,,,,,,,,,,,,,,,,353.7088427999988,354.9229387999512,355.7227169999387,355.7067634999985,,,,,,,,,,,,,,,,,,,,,,,,,,,,,,,,,,,355.70679849991575,355.7227169999387,355.7227169999387,357.289786899928,r,1,1.5647274000803009,None,,,,sub-794237,001,2024-03-11_15h34.37.366,stroop_test,2023.2.3,60.067852645543375,2024-03-11 15h34.51.453020 +0100,
,,,,,,,,blau,blue,b,1,,,,,,,,,4,10,58,6,357.30560019996483,,,,,,,,,,,,,,,,,357.2904021999566,357.6554763999302,358.45534579991363,358.4391130999429,,,,,,,,,,,,,,,,,,,,,,,,,,,,,,,,,,,358.43913219997194,358.45534579991363,358.45534579991363,359.83976099989377,b,1,1.3670235000317916,None,,,,sub-794237,001,2024-03-11_15h34.37.366,stroop_test,2023.2.3,60.067852645543375,2024-03-11 15h34.51.453020 +0100,
,,,,,,,,gelb,yellow,g,1,,,,,,,,,4,11,59,11,359.854977699928,,,,,,,,,,,,,,,,,359.8405740999151,360.6547878999263,361.4546460999409,361.438545199926,,,,,,,,,,,,,,,,,,,,,,,,,,,,,,,,,,,361.43856659997255,361.4546460999409,361.4546460999409,364.0717946999939,g,1,2.60838899994269,None,,,,sub-794237,001,2024-03-11_15h34.37.366,stroop_test,2023.2.3,60.067852645543375,2024-03-11 15h34.51.453020 +0100,
,,,,,,,,rot,yellow,g,0,,,,,,,,,5,0,60,3,364.0873909998918,,,,,,,,,,,,,,,,,364.07239739992656,364.88722309994046,365.68688929989,365.6711865999969,,,,,,,,,,,,,,,,,,,,,,,,,,,,,,,,,,,365.67119849997107,365.68688929989,365.68688929989,367.5709695999976,g,1,1.8723298000404611,None,,,,sub-794237,001,2024-03-11_15h34.37.366,stroop_test,2023.2.3,60.067852645543375,2024-03-11 15h34.51.453020 +0100,
,,,,,,,,rot,blue,b,0,,,,,,,,,5,1,61,2,367.58665640000254,,,,,,,,,,,,,,,,,367.5715685999021,367.6867452999577,368.48652639996726,368.4706626998959,,,,,,,,,,,,,,,,,,,,,,,,,,,,,,,,,,,368.47068249993026,368.48652639996726,368.48652639996726,369.97056950000115,b,1,1.477076999959536,None,,,,sub-794237,001,2024-03-11_15h34.37.366,stroop_test,2023.2.3,60.067852645543375,2024-03-11 15h34.51.453020 +0100,
,,,,,,,,rot,red,r,1,,,,,,,,,5,2,62,1,369.98611219995655,,,,,,,,,,,,,,,,,369.97112439991906,370.33595539990347,371.1359484998975,371.12004139996134,,,,,,,,,,,,,,,,,,,,,,,,,,,,,,,,,,,371.1200608999934,371.1359484998975,371.1359484998975,372.37022769998293,r,1,1.2235610999632627,None,,,,sub-794237,001,2024-03-11_15h34.37.366,stroop_test,2023.2.3,60.067852645543375,2024-03-11 15h34.51.453020 +0100,
,,,,,,,,gelb,red,r,0,,,,,,,,,5,3,63,8,372.3855257999385,,,,,,,,,,,,,,,,,372.370875799912,372.48552049999125,373.28555319993757,373.26962999999523,,,,,,,,,,,,,,,,,,,,,,,,,,,,,,,,,,,373.2696532999398,373.28555319993757,373.28555319993757,374.6531739999773,r,1,1.3639685000525787,None,,,,sub-794237,001,2024-03-11_15h34.37.366,stroop_test,2023.2.3,60.067852645543375,2024-03-11 15h34.51.453020 +0100,
,,,,,,,,blau,yellow,g,0,,,,,,,,,5,4,64,7,374.66866869991645,,,,,,,,,,,,,,,,,374.6538054998964,375.8685076999245,376.66822110000066,376.6522332999157,,,,,,,,,,,,,,,,,,,,,,,,,,,,,,,,,,,376.6522513999371,376.66822110000066,376.66822110000066,377.7021958999103,g,1,1.0238661000039428,None,,,,sub-794237,001,2024-03-11_15h34.37.366,stroop_test,2023.2.3,60.067852645543375,2024-03-11 15h34.51.453020 +0100,
,,,,,,,,gelb,yellow,g,1,,,,,,,,,5,5,65,10,377.71792450000066,,,,,,,,,,,,,,,,,377.7027164999163,378.51776509999763,379.3176526000025,379.3017086999025,,,,,,,,,,,,,,,,,,,,,,,,,,,,,,,,,,,379.30172929994296,379.3176526000025,379.3176526000025,379.9686823999509,g,1,0.6375756999477744,None,,,,sub-794237,001,2024-03-11_15h34.37.366,stroop_test,2023.2.3,60.067852645543375,2024-03-11 15h34.51.453020 +0100,
,,,,,,,,blau,blue,b,1,,,,,,,,,5,6,66,5,379.983860099921,,,,,,,,,,,,,,,,,379.96926849999,381.1838413999649,381.98368359997403,381.96781609999016,,,,,,,,,,,,,,,,,,,,,,,,,,,,,,,,,,,381.96783759992104,381.98368359997403,381.98368359997403,382.9512802999234,b,1,0.9631931999465451,None,,,,sub-794237,001,2024-03-11_15h34.37.366,stroop_test,2023.2.3,60.067852645543375,2024-03-11 15h34.51.453020 +0100,
,,,,,,,,blau,blue,b,1,,,,,,,,,5,7,67,6,382.9668032999616,,,,,,,,,,,,,,,,,382.9518618999282,383.7666613999754,384.56616569997277,384.54997949989047,,,,,,,,,,,,,,,,,,,,,,,,,,,,,,,,,,,384.54999329999555,384.56616569997277,384.56616569997277,385.1339404999744,b,1,0.5562539000529796,None,,,,sub-794237,001,2024-03-11_15h34.37.366,stroop_test,2023.2.3,60.067852645543375,2024-03-11 15h34.51.453020 +0100,
,,,,,,,,rot,red,r,1,,,,,,,,,5,8,68,0,385.14969859994017,,,,,,,,,,,,,,,,,385.1345122999046,386.3493159998907,387.1492123999633,387.13305059995037,,,,,,,,,,,,,,,,,,,,,,,,,,,,,,,,,,,387.13307109999005,387.1492123999633,387.1492123999633,388.23337929998524,r,1,1.0686620000051335,None,,,,sub-794237,001,2024-03-11_15h34.37.366,stroop_test,2023.2.3,60.067852645543375,2024-03-11 15h34.51.453020 +0100,
,,,,,,,,blau,red,r,0,,,,,,,,,5,9,69,4,388.2489275999833,,,,,,,,,,,,,,,,,388.2342096999055,388.59921519993804,389.3988231999101,389.3826215999434,,,,,,,,,,,,,,,,,,,,,,,,,,,,,,,,,,,389.3826427999884,389.3988231999101,389.3988231999101,391.1158878999995,r,1,1.7047271999763325,None,,,,sub-794237,001,2024-03-11_15h34.37.366,stroop_test,2023.2.3,60.067852645543375,2024-03-11 15h34.51.453020 +0100,
,,,,,,,,gelb,blue,b,0,,,,,,,,,5,10,70,9,391.13172569999006,,,,,,,,,,,,,,,,,391.1165320998989,391.4816471999511,392.28132309997454,392.26546649995726,,,,,,,,,,,,,,,,,,,,,,,,,,,,,,,,,,,392.2654903999064,392.28132309997454,392.28132309997454,394.9158419999294,b,1,2.617080600000918,None,,,,sub-794237,001,2024-03-11_15h34.37.366,stroop_test,2023.2.3,60.067852645543375,2024-03-11 15h34.51.453020 +0100,
,,,,,,,,gelb,yellow,g,1,,,,,,,,,5,11,71,11,394.93069089995697,,,,,,,,,,,,,,,,,394.91663019999396,395.7307723999256,396.53037349996157,396.51465379993897,,,,,,,,,,,,,,,,,,,,,,,,,,,,,,,,,,,396.5146761999931,396.53037349996157,396.53037349996157,397.7480905998964,g,1,1.2133992000017315,None,,,,sub-794237,001,2024-03-11_15h34.37.366,stroop_test,2023.2.3,60.067852645543375,2024-03-11 15h34.51.453020 +0100,
,,,,,,,,blau,blue,b,1,,,,,,,,,6,0,72,6,397.76360959990416,,,,,,,,,,,,,,,,,397.74862749991007,398.56359379994683,399.3634914999129,399.3472693999065,,,,,,,,,,,,,,,,,,,,,,,,,,,,,,,,,,,399.34729099995457,399.3634914999129,399.3634914999129,400.23051309993025,b,1,0.8647494999459013,None,,,,sub-794237,001,2024-03-11_15h34.37.366,stroop_test,2023.2.3,60.067852645543375,2024-03-11 15h34.51.453020 +0100,
,,,,,,,,blau,red,r,0,,,,,,,,,6,1,73,4,400.2465849999571,,,,,,,,,,,,,,,,,400.2310862999875,401.4463398999069,402.2460768999299,402.22980079997797,,,,,,,,,,,,,,,,,,,,,,,,,,,,,,,,,,,402.2298221999081,402.2460768999299,402.2460768999299,404.329807199887,r,1,2.066766700008884,None,,,,sub-794237,001,2024-03-11_15h34.37.366,stroop_test,2023.2.3,60.067852645543375,2024-03-11 15h34.51.453020 +0100,
,,,,,,,,rot,blue,b,0,,,,,,,,,6,2,74,2,404.3457125999266,,,,,,,,,,,,,,,,,404.3304351998959,404.4455393999815,405.2454067999497,405.22923479997553,,,,,,,,,,,,,,,,,,,,,,,,,,,,,,,,,,,405.22925489989575,405.2454067999497,405.2454067999497,407.0791711999336,b,1,1.8175465000094846,None,,,,sub-794237,001,2024-03-11_15h34.37.366,stroop_test,2023.2.3,60.067852645543375,2024-03-11 15h34.51.453020 +0100,
,,,,,,,,blau,blue,b,1,,,,,,,,,6,3,75,5,407.0949475999223,,,,,,,,,,,,,,,,,407.07980139995925,407.89493239996955,408.6947895999765,408.67889769992325,,,,,,,,,,,,,,,,,,,,,,,,,,,,,,,,,,,408.6789295999333,408.6947895999765,408.6947895999765,409.5291441999143,b,1,0.8183275000192225,None,,,,sub-794237,001,2024-03-11_15h34.37.366,stroop_test,2023.2.3,60.067852645543375,2024-03-11 15h34.51.453020 +0100,
,,,,,,,,gelb,blue,b,0,,,,,,,,,6,4,76,9,409.54457219992764,,,,,,,,,,,,,,,,,409.52972979994956,410.3444551998982,411.1441746999044,411.128113499959,,,,,,,,,,,,,,,,,,,,,,,,,,,,,,,,,,,411.12813709990587,411.1441746999044,411.1441746999044,413.27795079990756,b,1,2.1177304999437183,None,,,,sub-794237,001,2024-03-11_15h34.37.366,stroop_test,2023.2.3,60.067852645543375,2024-03-11 15h34.51.453020 +0100,
,,,,,,,,rot,red,r,1,,,,,,,,,6,5,77,1,413.2937309999252,,,,,,,,,,,,,,,,,413.27851199998986,413.6435881999787,414.4435735999141,414.4277697999496,,,,,,,,,,,,,,,,,,,,,,,,,,,,,,,,,,,414.42780669999775,414.4435735999141,414.4435735999141,416.09421269991435,r,1,1.6445597000420094,None,,,,sub-794237,001,2024-03-11_15h34.37.366,stroop_test,2023.2.3,60.067852645543375,2024-03-11 15h34.51.453020 +0100,
,,,,,,,,blau,yellow,g,0,,,,,,,,,6,6,78,7,416.10976059990935,,,,,,,,,,,,,,,,,416.09484269993845,416.20980149996467,417.0096758999862,416.99352449993603,,,,,,,,,,,,,,,,,,,,,,,,,,,,,,,,,,,416.9935462999856,417.0096758999862,417.0096758999862,419.5102540999651,g,1,2.4895903000142425,None,,,,sub-794237,001,2024-03-11_15h34.37.366,stroop_test,2023.2.3,60.067852645543375,2024-03-11 15h34.51.453020 +0100,
,,,,,,,,gelb,yellow,g,1,,,,,,,,,6,7,79,11,419.52568179997616,,,,,,,,,,,,,,,,,419.51099159999285,419.6256448999047,420.42528129997663,420.4094456000021,,,,,,,,,,,,,,,,,,,,,,,,,,,,,,,,,,,420.4094690999482,420.42528129997663,420.42528129997663,421.5767984999111,g,1,1.1440110000548884,None,,,,sub-794237,001,2024-03-11_15h34.37.366,stroop_test,2023.2.3,60.067852645543375,2024-03-11 15h34.51.453020 +0100,
,,,,,,,,gelb,yellow,g,1,,,,,,,,,6,8,80,10,421.59206479997374,,,,,,,,,,,,,,,,,421.57764699996915,422.3917975999648,423.1915735999355,423.1754018999636,,,,,,,,,,,,,,,,,,,,,,,,,,,,,,,,,,,423.1754233998945,423.1915735999355,423.1915735999355,423.7427579999203,g,1,0.5416510000359267,None,,,,sub-794237,001,2024-03-11_15h34.37.366,stroop_test,2023.2.3,60.067852645543375,2024-03-11 15h34.51.453020 +0100,
,,,,,,,,rot,red,r,1,,,,,,,,,6,9,81,0,423.7581449999707,,,,,,,,,,,,,,,,,423.74333939992357,424.95789859991055,425.757699699956,425.7417535999557,,,,,,,,,,,,,,,,,,,,,,,,,,,,,,,,,,,425.74177599989343,425.757699699956,425.757699699956,426.7422528999159,r,1,0.983072700095363,None,,,,sub-794237,001,2024-03-11_15h34.37.366,stroop_test,2023.2.3,60.067852645543375,2024-03-11 15h34.51.453020 +0100,
,,,,,,,,rot,yellow,g,0,,,,,,,,,6,10,82,3,426.75757819996215,,,,,,,,,,,,,,,,,426.74298579990864,427.1075729998993,427.90729659993667,427.89130629994906,,,,,,,,,,,,,,,,,,,,,,,,,,,,,,,,,,,427.89133269991726,427.90729659993667,427.90729659993667,430.2078660998959,g,1,2.2902718000113964,None,,,,sub-794237,001,2024-03-11_15h34.37.366,stroop_test,2023.2.3,60.067852645543375,2024-03-11 15h34.51.453020 +0100,
,,,,,,,,gelb,red,r,0,,,,,,,,,6,11,83,8,430.2233175999718,,,,,,,,,,,,,,,,,430.2084973999299,430.5731195999542,431.37317089992575,431.357435099897,,,,,,,,,,,,,,,,,,,,,,,,,,,,,,,,,,,431.3574561999412,431.37317089992575,431.37317089992575,433.3907274999656,r,1,2.016191199887544,None,,,,sub-794237,001,2024-03-11_15h34.37.366,stroop_test,2023.2.3,60.067852645543375,2024-03-11 15h34.51.453020 +0100,
,,,,,,,,rot,red,r,1,,,,,,,,,7,0,84,1,433.4062258999329,,,,,,,,,,,,,,,,,433.3914590999484,433.7560375999892,434.5558423999464,434.5399628999876,,,,,,,,,,,,,,,,,,,,,,,,,,,,,,,,,,,434.5399847999215,434.5558423999464,434.5558423999464,435.5399418999441,r,1,0.9779121000319719,None,,,,sub-794237,001,2024-03-11_15h34.37.366,stroop_test,2023.2.3,60.067852645543375,2024-03-11 15h34.51.453020 +0100,
,,,,,,,,rot,red,r,1,,,,,,,,,7,1,85,0,435.5556708999211,,,,,,,,,,,,,,,,,435.5404981999891,436.3556999999564,437.1553563999478,437.13951409992296,,,,,,,,,,,,,,,,,,,,,,,,,,,,,,,,,,,437.1395385999931,437.1553563999478,437.1553563999478,438.2724322999129,r,1,1.108688100008294,None,,,,sub-794237,001,2024-03-11_15h34.37.366,stroop_test,2023.2.3,60.067852645543375,2024-03-11 15h34.51.453020 +0100,
,,,,,,,,blau,blue,b,1,,,,,,,,,7,2,86,6,438.2885672999546,,,,,,,,,,,,,,,,,438.27300759998616,439.08824879990425,439.88805489998776,439.87218730000313,,,,,,,,,,,,,,,,,,,,,,,,,,,,,,,,,,,439.8722142999759,439.88805489998776,439.88805489998776,442.18867939990014,b,1,2.294318799977191,None,,,,sub-794237,001,2024-03-11_15h34.37.366,stroop_test,2023.2.3,60.067852645543375,2024-03-11 15h34.51.453020 +0100,
,,,,,,,,gelb,yellow,g,1,,,,,,,,,7,3,87,10,442.20415279990993,,,,,,,,,,,,,,,,,442.18919969990384,442.55432639992796,443.3540868998971,443.3384975999361,,,,,,,,,,,,,,,,,,,,,,,,,,,,,,,,,,,443.3385272999294,443.3540868998971,443.3540868998971,444.78876919997856,g,1,1.4196310000261292,None,,,,sub-794237,001,2024-03-11_15h34.37.366,stroop_test,2023.2.3,60.067852645543375,2024-03-11 15h34.51.453020 +0100,
,,,,,,,,blau,blue,b,1,,,,,,,,,7,4,88,5,444.80371479992755,,,,,,,,,,,,,,,,,444.78955289989244,446.00344219990075,446.8032502999995,446.78710359998513,,,,,,,,,,,,,,,,,,,,,,,,,,,,,,,,,,,446.7871201999951,446.8032502999995,446.8032502999995,448.23731469991617,b,1,1.427037800080143,None,,,,sub-794237,001,2024-03-11_15h34.37.366,stroop_test,2023.2.3,60.067852645543375,2024-03-11 15h34.51.453020 +0100,
,,,,,,,,gelb,red,r,0,,,,,,,,,7,5,89,8,448.25297309993766,,,,,,,,,,,,,,,,,448.2379083998967,449.05283329996746,449.8525908999145,449.8366121998988,,,,,,,,,,,,,,,,,,,,,,,,,,,,,,,,,,,449.8366342999507,449.8525908999145,449.8525908999145,451.80312209995463,r,1,1.934274600003846,None,,,,sub-794237,001,2024-03-11_15h34.37.366,stroop_test,2023.2.3,60.067852645543375,2024-03-11 15h34.51.453020 +0100,
,,,,,,,,blau,yellow,g,0,,,,,,,,,7,6,90,7,451.818627199973,,,,,,,,,,,,,,,,,451.8037193999626,452.16864389996044,452.9683458999498,452.9530522999121,,,,,,,,,,,,,,,,,,,,,,,,,,,,,,,,,,,452.95308419992216,452.9683458999498,452.9683458999498,454.53669889993034,g,1,1.5655109999934211,None,,,,sub-794237,001,2024-03-11_15h34.37.366,stroop_test,2023.2.3,60.067852645543375,2024-03-11 15h34.51.453020 +0100,
,,,,,,,,gelb,blue,b,0,,,,,,,,,7,7,91,9,454.5517562999157,,,,,,,,,,,,,,,,,454.5375142999692,454.9015610999195,455.70127929991577,455.6852634999668,,,,,,,,,,,,,,,,,,,,,,,,,,,,,,,,,,,455.6852860999061,455.70127929991577,455.70127929991577,457.2360269998899,b,1,1.5334527000086382,None,,,,sub-794237,001,2024-03-11_15h34.37.366,stroop_test,2023.2.3,60.067852645543375,2024-03-11 15h34.51.453020 +0100,
,,,,,,,,gelb,yellow,g,1,,,,,,,,,7,8,92,11,457.2510793999536,,,,,,,,,,,,,,,,,457.2366111999145,457.35107959993184,458.1509296000004,458.1350014999043,,,,,,,,,,,,,,,,,,,,,,,,,,,,,,,,,,,458.13502239994705,458.1509296000004,458.1509296000004,459.56807569996454,g,1,1.4078240999951959,None,,,,sub-794237,001,2024-03-11_15h34.37.366,stroop_test,2023.2.3,60.067852645543375,2024-03-11 15h34.51.453020 +0100,
,,,,,,,,rot,blue,b,0,,,,,,,,,7,9,93,2,459.5838953999337,,,,,,,,,,,,,,,,,459.5686803999124,460.3836848998908,461.18356359994505,461.1672504999442,,,,,,,,,,,,,,,,,,,,,,,,,,,,,,,,,,,461.1672719999915,461.18356359994505,461.18356359994505,463.0506474999711,b,1,1.8525963000720367,None,,,,sub-794237,001,2024-03-11_15h34.37.366,stroop_test,2023.2.3,60.067852645543375,2024-03-11 15h34.51.453020 +0100,
,,,,,,,,rot,yellow,g,0,,,,,,,,,7,10,94,3,463.06627599999774,,,,,,,,,,,,,,,,,463.05120229988825,463.41599449992646,464.2160982999485,464.2001689999597,,,,,,,,,,,,,,,,,,,,,,,,,,,,,,,,,,,464.20019039988983,464.2160982999485,464.2160982999485,465.4000482999254,g,1,1.1756509999977425,None,,,,sub-794237,001,2024-03-11_15h34.37.366,stroop_test,2023.2.3,60.067852645543375,2024-03-11 15h34.51.453020 +0100,
,,,,,,,,blau,red,r,0,,,,,,,,,7,11,95,4,465.4158895999426,,,,,,,,,,,,,,,,,465.40064089989755,465.76567949994933,466.56572129996493,466.5499568999512,,,,,,,,,,,,,,,,,,,,,,,,,,,,,,,,,,,466.5499801998958,466.56572129996493,466.56572129996493,468.1330802999437,r,1,1.562516300007701,None,,,,sub-794237,001,2024-03-11_15h34.37.366,stroop_test,2023.2.3,60.067852645543375,2024-03-11 15h34.51.453020 +0100,
,,,,,,,,gelb,red,r,0,,,,,,,,,8,0,96,8,468.1486025999766,,,,,,,,,,,,,,,,,468.13367359992117,468.9485071999952,469.7484323999379,469.7325149999233,,,,,,,,,,,,,,,,,,,,,,,,,,,,,,,,,,,469.73253609996755,469.7484323999379,469.7484323999379,470.7490622999612,r,1,0.9988040999742225,None,,,,sub-794237,001,2024-03-11_15h34.37.366,stroop_test,2023.2.3,60.067852645543375,2024-03-11 15h34.51.453020 +0100,
,,,,,,,,gelb,yellow,g,1,,,,,,,,,8,1,97,11,470.76455239998177,,,,,,,,,,,,,,,,,470.7496142999735,471.9644696000032,472.7641704999842,472.7482861999888,,,,,,,,,,,,,,,,,,,,,,,,,,,,,,,,,,,472.7483099999372,472.7641704999842,472.7641704999842,475.14822319999803,g,1,2.3727166999597102,None,,,,sub-794237,001,2024-03-11_15h34.37.366,stroop_test,2023.2.3,60.067852645543375,2024-03-11 15h34.51.453020 +0100,
,,,,,,,,blau,red,r,0,,,,,,,,,8,2,98,4,475.16373059991747,,,,,,,,,,,,,,,,,475.14888159988914,476.34707679995336,477.1468560999492,477.1308148999233,,,,,,,,,,,,,,,,,,,,,,,,,,,,,,,,,,,477.1308394999942,477.1468560999492,477.1468560999492,478.180924699991,r,1,1.02679839998018,None,,,,sub-794237,001,2024-03-11_15h34.37.366,stroop_test,2023.2.3,60.067852645543375,2024-03-11 15h34.51.453020 +0100,
,,,,,,,,rot,yellow,g,0,,,,,,,,,8,3,99,3,478.1966066999594,,,,,,,,,,,,,,,,,478.1815300999442,478.54665159992874,479.3462404999882,479.330288899946,,,,,,,,,,,,,,,,,,,,,,,,,,,,,,,,,,,479.3303085999796,479.3462404999882,479.3462404999882,480.76346549997106,g,1,1.4127355000237003,None,,,,sub-794237,001,2024-03-11_15h34.37.366,stroop_test,2023.2.3,60.067852645543375,2024-03-11 15h34.51.453020 +0100,
,,,,,,,,rot,red,r,1,,,,,,,,,8,4,100,0,480.7793550998904,,,,,,,,,,,,,,,,,480.76399019989185,480.87953249993734,481.6792220999487,481.66316219989676,,,,,,,,,,,,,,,,,,,,,,,,,,,,,,,,,,,481.66318679996766,481.6792220999487,481.6792220999487,482.3629605999449,r,1,0.6725021000020206,None,,,,sub-794237,001,2024-03-11_15h34.37.366,stroop_test,2023.2.3,60.067852645543375,2024-03-11 15h34.51.453020 +0100,
,,,,,,,,gelb,blue,b,0,,,,,,,,,8,5,101,9,482.3788919999497,,,,,,,,,,,,,,,,,482.36336259997915,483.1619892999297,483.96174069994595,483.94584089994896,,,,,,,,,,,,,,,,,,,,,,,,,,,,,,,,,,,483.9458570999559,483.96174069994595,483.96174069994595,484.61306609993335,b,1,0.6501350000035018,None,,,,sub-794237,001,2024-03-11_15h34.37.366,stroop_test,2023.2.3,60.067852645543375,2024-03-11 15h34.51.453020 +0100,
,,,,,,,,gelb,yellow,g,1,,,,,,,,,8,6,102,10,484.62852089991793,,,,,,,,,,,,,,,,,484.6136964999605,484.72851960000116,485.5281568999635,485.5122571999673,,,,,,,,,,,,,,,,,,,,,,,,,,,,,,,,,,,485.5122994999401,485.5281568999635,485.5281568999635,486.1792734999908,g,1,0.6366845000302419,None,,,,sub-794237,001,2024-03-11_15h34.37.366,stroop_test,2023.2.3,60.067852645543375,2024-03-11 15h34.51.453020 +0100,
,,,,,,,,rot,blue,b,0,,,,,,,,,8,7,103,2,486.19480009994004,,,,,,,,,,,,,,,,,486.1798404000001,486.99481389997527,487.794560899958,487.778391999891,,,,,,,,,,,,,,,,,,,,,,,,,,,,,,,,,,,487.77840769989416,487.794560899958,487.794560899958,488.6785097999964,b,1,0.8756594000151381,None,,,,sub-794237,001,2024-03-11_15h34.37.366,stroop_test,2023.2.3,60.067852645543375,2024-03-11 15h34.51.453020 +0100,
,,,,,,,,blau,blue,b,1,,,,,,,,,8,8,104,5,488.6943964998936,,,,,,,,,,,,,,,,,488.679060399998,488.79445109993685,489.5940063999733,489.57818019995466,,,,,,,,,,,,,,,,,,,,,,,,,,,,,,,,,,,489.57820379990153,489.5940063999733,489.5940063999733,490.2779690999305,b,1,0.6746842000866309,None,,,,sub-794237,001,2024-03-11_15h34.37.366,stroop_test,2023.2.3,60.067852645543375,2024-03-11 15h34.51.453020 +0100,
,,,,,,,,blau,blue,b,1,,,,,,,,,8,9,105,6,490.29393259994686,,,,,,,,,,,,,,,,,490.27847159991506,491.0938485999359,491.8939066999592,491.87811289995443,,,,,,,,,,,,,,,,,,,,,,,,,,,,,,,,,,,491.87814669997897,491.8939066999592,491.8939066999592,492.29477429995313,b,1,0.39541040000040084,None,,,,sub-794237,001,2024-03-11_15h34.37.366,stroop_test,2023.2.3,60.067852645543375,2024-03-11 15h34.51.453020 +0100,
,,,,,,,,rot,red,r,1,,,,,,,,,8,10,106,1,492.30997619999107,,,,,,,,,,,,,,,,,492.29550639993977,492.41006789996754,493.20996839995496,493.19419829989783,,,,,,,,,,,,,,,,,,,,,,,,,,,,,,,,,,,493.1942240999779,493.20996839995496,493.20996839995496,494.26070699992124,r,1,1.0373417999362573,None,,,,sub-794237,001,2024-03-11_15h34.37.366,stroop_test,2023.2.3,60.067852645543375,2024-03-11 15h34.51.453020 +0100,
,,,,,,,,blau,yellow,g,0,,,,,,,,,8,11,107,7,494.27648829994723,,,,,,,,,,,,,,,,,494.2613781999098,494.37647429993376,495.17637299990747,495.1600006999215,,,,,,,,,,,,,,,,,,,,,,,,,,,,,,,,,,,495.1600226999726,495.17637299990747,495.17637299990747,496.4102829999756,g,1,1.2253585999133065,None,,,,sub-794237,001,2024-03-11_15h34.37.366,stroop_test,2023.2.3,60.067852645543375,2024-03-11 15h34.51.453020 +0100,
,,,,,,,,rot,blue,b,0,,,,,,,,,9,0,108,2,496.425900299917,,,,,,,,,,,,,,,,,496.4109533999581,497.22593079996295,498.0256823999807,498.00959469994996,,,,,,,,,,,,,,,,,,,,,,,,,,,,,,,,,,,498.0096180998953,498.0256823999807,498.0256823999807,499.14308839989826,b,1,1.1071527999592945,None,,,,sub-794237,001,2024-03-11_15h34.37.366,stroop_test,2023.2.3,60.067852645543375,2024-03-11 15h34.51.453020 +0100,
,,,,,,,,rot,red,r,1,,,,,,,,,9,1,109,0,499.15855489997193,,,,,,,,,,,,,,,,,499.1436889999313,499.5086004999466,500.308379999944,500.29259839991573,,,,,,,,,,,,,,,,,,,,,,,,,,,,,,,,,,,500.2926189999562,500.308379999944,500.308379999944,501.0927525999723,r,1,0.7680813000770286,None,,,,sub-794237,001,2024-03-11_15h34.37.366,stroop_test,2023.2.3,60.067852645543375,2024-03-11 15h34.51.453020 +0100,
,,,,,,,,blau,red,r,0,,,,,,,,,9,2,110,4,501.1081648999825,,,,,,,,,,,,,,,,,501.0933672999963,501.4581230999902,502.25789019989315,502.24216719996184,,,,,,,,,,,,,,,,,,,,,,,,,,,,,,,,,,,502.2421875,502.25789019989315,502.25789019989315,503.8920489999,r,1,1.6296529000392184,None,,,,sub-794237,001,2024-03-11_15h34.37.366,stroop_test,2023.2.3,60.067852645543375,2024-03-11 15h34.51.453020 +0100,
,,,,,,,,gelb,yellow,g,1,,,,,,,,,9,3,111,10,503.9074944999302,,,,,,,,,,,,,,,,,503.892617699923,504.00748299993575,504.80738979997113,504.79161159996875,,,,,,,,,,,,,,,,,,,,,,,,,,,,,,,,,,,504.7916325998958,504.80738979997113,504.80738979997113,505.5916715998901,g,1,0.7683295001043007,None,,,,sub-794237,001,2024-03-11_15h34.37.366,stroop_test,2023.2.3,60.067852645543375,2024-03-11 15h34.51.453020 +0100,
,,,,,,,,rot,red,r,1,,,,,,,,,9,4,112,1,505.6071680999594,,,,,,,,,,,,,,,,,505.5922301999526,505.707357199979,506.50716239993926,506.49143189995084,,,,,,,,,,,,,,,,,,,,,,,,,,,,,,,,,,,506.49145769991446,506.50716239993926,506.50716239993926,508.5408211000031,r,1,2.0193236001068726,None,,,,sub-794237,001,2024-03-11_15h34.37.366,stroop_test,2023.2.3,60.067852645543375,2024-03-11 15h34.51.453020 +0100,
,,,,,,,,gelb,yellow,g,1,,,,,,,,,9,5,113,11,508.5565676999977,,,,,,,,,,,,,,,,,508.54134219989646,509.7564135999419,510.5561666999711,510.5402152999304,,,,,,,,,,,,,,,,,,,,,,,,,,,,,,,,,,,510.5402359999716,510.5561666999711,510.5561666999711,511.4405355999479,g,1,0.8675006000557914,None,,,,sub-794237,001,2024-03-11_15h34.37.366,stroop_test,2023.2.3,60.067852645543375,2024-03-11 15h34.51.453020 +0100,
,,,,,,,,rot,yellow,g,0,,,,,,,,,9,6,114,3,511.4559064999921,,,,,,,,,,,,,,,,,511.44111319992226,512.255828699912,513.0556136999512,513.0396702999715,,,,,,,,,,,,,,,,,,,,,,,,,,,,,,,,,,,513.0396922999062,513.0556136999512,513.0556136999512,513.7234522999497,g,1,0.663340000086464,None,,,,sub-794237,001,2024-03-11_15h34.37.366,stroop_test,2023.2.3,60.067852645543375,2024-03-11 15h34.51.453020 +0100,
,,,,,,,,blau,yellow,g,0,,,,,,,,,9,7,115,7,513.7389897999819,,,,,,,,,,,,,,,,,513.7239765999839,514.5387717999984,515.3385489999782,515.3227378999582,,,,,,,,,,,,,,,,,,,,,,,,,,,,,,,,,,,515.3227587000001,515.3385489999782,515.3385489999782,515.8892916999757,g,1,0.5449844000395387,None,,,,sub-794237,001,2024-03-11_15h34.37.366,stroop_test,2023.2.3,60.067852645543375,2024-03-11 15h34.51.453020 +0100,
,,,,,,,,gelb,red,r,0,,,,,,,,,9,8,116,8,515.9050374999642,,,,,,,,,,,,,,,,,515.889724199893,517.1047597998986,517.9047475999687,517.8887944999151,,,,,,,,,,,,,,,,,,,,,,,,,,,,,,,,,,,517.8888142999494,517.9047475999687,517.9047475999687,519.0722452999325,r,1,1.1651983000338078,None,,,,sub-794237,001,2024-03-11_15h34.37.366,stroop_test,2023.2.3,60.067852645543375,2024-03-11 15h34.51.453020 +0100,
,,,,,,,,gelb,blue,b,0,,,,,,,,,9,9,117,9,519.0880413999548,,,,,,,,,,,,,,,,,519.0728213998955,520.2876863999991,521.0873682999518,521.0714318999089,,,,,,,,,,,,,,,,,,,,,,,,,,,,,,,,,,,521.0714543999638,521.0873682999518,521.0873682999518,522.4215062999865,b,1,1.3252552000340074,None,,,,sub-794237,001,2024-03-11_15h34.37.366,stroop_test,2023.2.3,60.067852645543375,2024-03-11 15h34.51.453020 +0100,
,,,,,,,,blau,blue,b,1,,,,,,,,,9,10,118,5,522.437141399947,,,,,,,,,,,,,,,,,522.4222029999364,522.7871585999383,523.5869926000014,523.5707825999707,,,,,,,,,,,,,,,,,,,,,,,,,,,,,,,,,,,523.5708035998978,523.5869926000014,523.5869926000014,525.0041356999427,b,1,1.4057321000145748,None,,,,sub-794237,001,2024-03-11_15h34.37.366,stroop_test,2023.2.3,60.067852645543375,2024-03-11 15h34.51.453020 +0100,
,,,,,,,,blau,blue,b,1,,,,,,,,,9,11,119,6,525.0198495999211,,,,,,,,,,,,,,,,,525.0046259999508,526.2198294999544,527.0195429999148,527.0033068999182,,,,,,,,,,,,,,,,,,,,,,,,,,,,,,,,,,,527.0033289999701,527.0195429999148,527.0195429999148,527.5035182998981,b,1,0.47763430001214147,None,,,,sub-794237,001,2024-03-11_15h34.37.366,stroop_test,2023.2.3,60.067852645543375,2024-03-11 15h34.51.453020 +0100,
,,,,,,,,,,,,,,,,,,,,,,,,,,,,,,,,,,,,,,,,,,,,,,,,,,,,,,,,,,,,,,,,,,,,,,,,,,,,,,,,,,,,,,,527.5039093999658,527.5193369999761,532.5184426999185,,,,,,,,
