id,trial,word,color,congruent,resp,corr,rt
sub-10318869,1,blau,red,0,r,1,1.0174318000208586
sub-10318869,2,blau,yellow,0,g,1,0.7098623999627307
sub-10318869,3,gelb,yellow,1,r,0,0.4747468000277877
sub-10318869,4,gelb,yellow,1,g,1,1.0407237000763416
sub-10318869,5,rot,yellow,0,g,1,0.9935841999249532
sub-10318869,6,rot,red,1,r,1,0.7065361000131816
sub-10318869,7,gelb,red,0,r,1,0.84749850002117455
sub-10318869,8,blau,blue,1,b,1,0.6184115000069141
sub-10318869,9,rot,blue,0,r,0,0.9001424999441952
sub-10318869,10,rot,red,1,r,1,0.8164807000430301
sub-10318869,11,blau,blue,1,b,1,0.4970882999477908
sub-10318869,12,gelb,blue,0,b,1,0.626132300007157
sub-10318869,13,blau,red,0,r,1,0.9245870999293402
sub-10318869,14,gelb,yellow,1,g,1,0.549907400039956
sub-10318869,15,rot,blue,0,b,1,0.719103500014171
sub-10318869,16,rot,yellow,0,g,1,0.8174813999794424
sub-10318869,17,blau,blue,1,b,1,0.8180120999459177
sub-10318869,18,gelb,blue,0,b,1,0.6345327999442816
sub-10318869,19,rot,red,1,r,1,1.321383300004527
sub-10318869,20,rot,red,1,r,1,0.8740592000540346
sub-10318869,21,blau,blue,1,b,1,0.5232719000196084
sub-10318869,22,gelb,red,0,r,1,1.130940700066276
sub-10318869,23,gelb,yellow,1,g,1,0.5468472000211477
sub-10318869,24,blau,yellow,0,g,1,0.6569361999863759
sub-10318869,25,gelb,yellow,1,g,1,0.5249230000190437
sub-10318869,26,rot,red,1,r,1,0.64434659993276
sub-10318869,27,rot,red,1,r,1,3.391663799993694
sub-10318869,28,gelb,yellow,1,g,1,0.6321100000059232
sub-10318869,29,blau,blue,1,b,1,0.42693019995931536
sub-10318869,30,rot,yellow,0,g,1,0.6713162999367341
sub-10318869,31,gelb,red,0,r,1,0.916109099984169
sub-10318869,32,blau,blue,1,b,1,0.5119813999626786
sub-10318869,33,gelb,blue,0,b,1,0.6006416000891477
sub-10318869,34,blau,yellow,0,g,1,1.0497469000983983
sub-10318869,35,blau,red,0,r,1,0.9016950000077486
sub-10318869,36,rot,blue,0,b,1,0.7591552000958472
sub-10318869,37,blau,blue,1,b,1,0.5131014999933541
sub-10318869,38,rot,blue,0,b,1,0.4698227000189945
sub-10318869,39,gelb,yellow,1,g,1,0.48453360004350543
sub-10318869,40,blau,blue,1,b,1,0.564172999933362
sub-10318869,41,gelb,blue,0,b,1,0.5586974000325426
sub-10318869,42,rot,red,1,r,1,0.6347221999894828
sub-10318869,43,blau,red,0,r,1,0.6063629999989644
sub-10318869,44,rot,yellow,0,g,1,0.6366735000628978
sub-10318869,45,blau,yellow,0,g,1,0.5434410000452772
sub-10318869,46,gelb,yellow,1,g,1,0.4848338000010699
sub-10318869,47,gelb,red,0,b,0,0.574063399923034
sub-10318869,48,rot,red,1,r,1,1.144232999999076
sub-10318869,49,blau,blue,1,b,1,0.770896999980323
sub-10318869,50,gelb,blue,0,b,1,0.939492900040932
sub-10318869,51,blau,yellow,0,g,1,0.702155499951914
sub-10318869,52,rot,red,1,r,1,0.9912652999628336
sub-10318869,53,gelb,yellow,1,g,1,0.7132048000348732
sub-10318869,54,blau,blue,1,b,1,0.8559930000919849
sub-10318869,55,gelb,red,0,r,1,0.9597026000265032
sub-10318869,56,gelb,yellow,1,g,1,0.7028786001028493
sub-10318869,57,rot,blue,0,b,1,0.6885927999392152
sub-10318869,58,rot,red,1,r,1,0.5780754000879824
sub-10318869,59,rot,yellow,0,g,1,0.7610912999371067
sub-10318869,60,blau,red,0,b,0,0.6127965999767184
sub-10318869,61,rot,blue,0,b,1,1.2053820999572054
sub-10318869,62,blau,blue,1,b,1,0.4755650999723002
sub-10318869,63,rot,red,1,r,1,1.073372400016524
sub-10318869,64,gelb,red,0,r,1,1.1660804999992251
sub-10318869,65,blau,red,0,r,1,0.9132422000402584
sub-10318869,66,rot,yellow,0,g,1,0.8344220999861136
sub-10318869,67,gelb,blue,0,b,1,0.8936682000057772
sub-10318869,68,blau,blue,1,b,1,0.5585830999771133
sub-10318869,69,rot,red,1,r,1,0.5329308999935165
sub-10318869,70,gelb,yellow,1,g,1,0.4775595999090001
sub-10318869,71,gelb,yellow,1,g,1,0.5555303000146523
sub-10318869,72,blau,yellow,0,g,1,0.5891374000348151
sub-10318869,73,blau,yellow,0,g,1,0.5172850000672042
sub-10318869,74,blau,red,0,r,1,0.9317367000039668
sub-10318869,75,rot,blue,0,b,1,0.5919152999995276
sub-10318869,76,rot,red,1,r,1,0.5272011000197381
sub-10318869,77,gelb,red,0,r,1,0.40758440003264695
sub-10318869,78,gelb,yellow,1,g,1,0.6484914000611752
sub-10318869,79,rot,yellow,0,g,1,0.7444917999673635
sub-10318869,80,blau,blue,1,b,1,0.5944602999370545
sub-10318869,81,gelb,blue,0,b,1,0.5464322000043467
sub-10318869,82,blau,blue,1,b,1,0.4997447000350803
sub-10318869,83,rot,red,1,r,1,0.994455400039442
sub-10318869,84,gelb,yellow,1,g,1,0.6342685000272468
sub-10318869,85,blau,red,0,r,1,0.918600899982266
sub-10318869,86,rot,blue,0,b,1,0.8204146000789478
sub-10318869,87,rot,red,1,r,1,0.946440999978222
sub-10318869,88,rot,yellow,0,g,1,0.8457215999951586
sub-10318869,89,blau,yellow,0,g,1,0.5817777999909595
sub-10318869,90,rot,red,1,r,1,0.472166100051254
sub-10318869,91,gelb,yellow,1,g,1,0.5843966000247747
sub-10318869,92,gelb,blue,0,b,1,0.5552401000168175
sub-10318869,93,blau,blue,1,b,1,0.5733979999786243
sub-10318869,94,gelb,yellow,1,r,0,0.7635570000857115
sub-10318869,95,gelb,red,0,r,1,1.1657066999468952
sub-10318869,96,blau,blue,1,b,1,0.5335536000784487
sub-10318869,97,gelb,yellow,1,g,1,0.60799719998613
sub-10318869,98,gelb,red,0,r,1,0.6643948999699205
sub-10318869,99,gelb,blue,0,b,1,0.7532772000413388
sub-10318869,100,rot,red,1,r,1,0.9922964998986572
sub-10318869,101,rot,blue,0,b,1,0.7189515000209212
sub-10318869,102,blau,yellow,0,g,1,0.7798183999257162
sub-10318869,103,gelb,yellow,1,g,1,0.551196200074628
sub-10318869,104,blau,red,0,r,1,0.9699856000952424
sub-10318869,105,rot,red,1,r,1,0.43005389999598265
sub-10318869,106,blau,blue,1,b,1,0.872182699968107
sub-10318869,107,blau,blue,1,b,1,0.5475850000511855
sub-10318869,108,rot,yellow,0,g,1,0.874316000030376
sub-10318869,109,blau,blue,1,b,1,0.7163991000270471
sub-10318869,110,blau,yellow,0,g,1,0.9535135000478476
sub-10318869,111,gelb,blue,0,r,0,0.8031717000994831
sub-10318869,112,rot,red,1,r,1,0.714287200011313
sub-10318869,113,gelb,yellow,1,g,1,0.7325126000214368
sub-10318869,114,rot,yellow,0,g,1,0.5400002000387758
sub-10318869,115,gelb,yellow,1,g,1,0.5180976999690756
sub-10318869,116,blau,blue,1,b,1,0.5090371000114828
sub-10318869,117,gelb,red,0,r,1,1.1508283000439403
sub-10318869,118,blau,red,0,r,1,0.5611956999637187
sub-10318869,119,rot,blue,0,b,1,0.7399525999790058
sub-10318869,120,rot,red,1,r,1,0.9698503999970852
sub-1106725,1,gelb,blue,0,b,1,0.9008909999392928
sub-1106725,2,gelb,yellow,1,g,1,0.7416618000715971
sub-1106725,3,gelb,red,0,r,1,0.38609859999269247
sub-1106725,4,gelb,yellow,1,g,1,0.7807603001128882
sub-1106725,5,blau,blue,1,b,1,0.6222572999540716
sub-1106725,6,blau,red,0,r,1,0.5141963998321444
sub-1106725,7,rot,red,1,r,1,0.4718039999715984
sub-1106725,8,rot,red,1,r,1,0.42409340012818575
sub-1106725,9,rot,blue,0,b,1,0.4967891999986022
sub-1106725,10,rot,yellow,0,g,1,0.3704548999667168
sub-1106725,11,blau,yellow,0,g,1,0.33467060001567006
sub-1106725,12,blau,blue,1,r,0,0.4476588000543415
sub-1106725,13,rot,red,1,r,1,0.5272485001478344
sub-1106725,14,gelb,yellow,1,g,1,0.5373023999854922
sub-1106725,15,blau,yellow,0,g,1,0.8088502001482993
sub-1106725,16,rot,yellow,0,g,1,0.4181031999178231
sub-1106725,17,gelb,yellow,1,g,1,0.4591018999926746
sub-1106725,18,gelb,red,0,r,1,0.4014113000594079
sub-1106725,19,rot,blue,0,b,1,0.8244987
sub-1106725,20,blau,red,0,r,1,0.6260626001749188
sub-1106725,21,rot,red,1,r,1,0.3765471999067813
sub-1106725,22,gelb,blue,0,b,1,0.5713906001765281
sub-1106725,23,blau,blue,1,b,1,0.3901255000382662
sub-1106725,24,blau,blue,1,b,1,0.44220040016807616
sub-1106725,25,gelb,blue,0,b,1,0.3179699999745935
sub-1106725,26,rot,yellow,0,g,1,0.7674298000056297
sub-1106725,27,blau,blue,1,r,0,0.6043547000735998
sub-1106725,28,gelb,red,0,r,1,0.3558674999512732
sub-1106725,29,gelb,yellow,1,g,1,0.7416577998083085
sub-1106725,30,gelb,yellow,1,g,1,0.4753412001300603
sub-1106725,31,blau,yellow,0,g,1,0.5068855998106301
sub-1106725,32,rot,red,1,r,1,0.5749240000732243
sub-1106725,33,blau,red,0,r,1,0.5138095999136567
sub-1106725,34,rot,blue,0,b,1,0.6196115999482572
sub-1106725,35,rot,red,1,r,1,0.5119845999870449
sub-1106725,36,blau,blue,1,b,1,0.582715
sub-1106725,37,rot,blue,0,b,1,0.4247239001560956
sub-1106725,38,blau,blue,1,b,1,0.3721951998304576
sub-1106725,39,blau,blue,1,b,1,0.4346421000082046
sub-1106725,40,rot,red,1,r,1,0.5220495001412928
sub-1106725,41,blau,red,0,r,1,0.3585848000366241
sub-1106725,42,blau,yellow,0,b,0,0.6669505999889225
sub-1106725,43,gelb,blue,0,b,1,0.43392269988544285
sub-1106725,44,rot,yellow,0,g,1,0.32301940000616014
sub-1106725,45,gelb,yellow,1,g,1,0.3573948999401182
sub-1106725,46,rot,red,1,r,1,0.6356146
sub-1106725,47,gelb,yellow,1,g,1,0.5482775
sub-1106725,48,gelb,red,0,r,1,0.34355290001258254
sub-1106725,49,gelb,blue,0,b,1,0.4943884999956936
sub-1106725,50,rot,red,1,r,1,0.5131844999268651
sub-1106725,51,gelb,red,0,r,1,0.4174770000390709
sub-1106725,52,blau,blue,1,b,1,0.5737113999202847
sub-1106725,53,blau,red,0,r,1,0.6039603999815881
sub-1106725,54,gelb,yellow,1,g,1,0.5179838000331074
sub-1106725,55,rot,blue,0,b,1,0.9486102000810206
sub-1106725,56,rot,red,1,r,1,0.4845952000468969
sub-1106725,57,blau,blue,1,b,1,0.5355555999558419
sub-1106725,58,rot,yellow,0,r,0,0.58786810003221035
sub-1106725,59,blau,yellow,0,g,1,0.5794786000624299
sub-1106725,60,gelb,yellow,1,g,1,0.3675700998865068
sub-1106725,61,rot,yellow,0,g,1,0.3964736999478191
sub-1106725,62,blau,yellow,0,g,1,0.43511729990132153
sub-1106725,63,rot,red,1,r,1,0.4684778000228107
sub-1106725,64,gelb,red,0,r,1,0.4206018999684602
sub-1106725,65,gelb,yellow,1,b,0,0.4727998999878764
sub-1106725,66,blau,blue,1,b,1,0.5277932
sub-1106725,67,gelb,yellow,1,g,1,0.6331207999028265
sub-1106725,68,rot,blue,0,r,0,0.5055094000417739
sub-1106725,69,blau,red,0,r,1,0.8151626999024302
sub-1106725,70,rot,red,1,r,1,0.4636109001003206
sub-1106725,71,gelb,blue,0,b,1,0.5436221000272781
sub-1106725,72,blau,blue,1,b,1,0.4009269
sub-1106725,73,blau,yellow,0,g,1,0.4851853998843581
sub-1106725,74,blau,blue,1,b,1,0.7408384000882506
sub-1106725,75,blau,blue,1,b,1,0.33833279996179044
sub-1106725,76,rot,yellow,0,r,0,0.6415805998258293
sub-1106725,77,rot,red,1,r,1,0.35821460001170635
sub-1106725,78,rot,red,1,r,1,0.35151429986581206
sub-1106725,79,gelb,red,0,r,1,0.4977414000313729
sub-1106725,80,rot,blue,0,b,1,0.6156520000658929
sub-1106725,81,gelb,yellow,1,g,1,0.6653545999433845
sub-1106725,82,gelb,yellow,1,g,1,0.3241045998875052
sub-1106725,83,blau,red,0,b,0,0.7785758001264185
sub-1106725,84,gelb,blue,0,b,1,0.6030461001209915
sub-1106725,85,blau,blue,1,b,1,0.44847130007110536
sub-1106725,86,rot,blue,0,b,1,0.4542741999030113
sub-1106725,87,gelb,red,0,r,1,0.30175979994237423
sub-1106725,88,rot,red,1,r,1,0.31014270009472966
sub-1106725,89,blau,blue,1,g,0,0.4374780000653118
sub-1106725,90,gelb,blue,0,b,1,0.5213763
sub-1106725,91,rot,yellow,0,g,1,0.5594565998762846
sub-1106725,92,gelb,yellow,1,g,1,0.44065390015020967
sub-1106725,93,blau,yellow,0,g,1,0.36018860014155507
sub-1106725,94,gelb,yellow,1,g,1,0.4030494000762701
sub-1106725,95,rot,red,1,r,1,0.5930141999851912
sub-1106725,96,blau,red,0,r,1,0.29738450003787875
sub-1106725,97,rot,red,1,r,1,0.34901390015147626
sub-1106725,98,blau,yellow,0,g,1,0.6891278999391943
sub-1106725,99,gelb,red,0,r,1,0.5152773000299931
sub-1106725,100,gelb,yellow,1,g,1,0.5776984000112861
sub-1106725,101,rot,yellow,0,g,1,0.6145836999639869
sub-1106725,102,blau,blue,1,b,1,0.5428239000029862
sub-1106725,103,blau,blue,1,b,1,0.365248
sub-1106725,104,gelb,blue,0,b,1,0.37877299985848367
sub-1106725,105,rot,blue,0,b,1,0.3551385998725891
sub-1106725,106,gelb,yellow,1,g,1,0.7276679000351578
sub-1106725,107,rot,red,1,r,1,0.5401143000926822
sub-1106725,108,blau,red,0,r,1,0.3601679999846965
sub-1106725,109,rot,yellow,0,g,1,0.5616254000924528
sub-1106725,110,rot,blue,0,b,1,0.6626983000896871
sub-1106725,111,blau,blue,1,b,1,0.4199145999737084
sub-1106725,112,blau,red,0,g,0,0.8173009001184255
sub-1106725,113,gelb,yellow,1,g,1,0.6835785999428481
sub-1106725,114,rot,red,1,r,1,0.5328808000776917
sub-1106725,115,rot,red,1,r,1,0.3724813
sub-1106725,116,gelb,blue,0,b,1,0.6044178002048284
sub-1106725,117,gelb,yellow,1,g,1,0.5819510999135673
sub-1106725,118,blau,yellow,0,g,1,0.4433780000545085
sub-1106725,119,gelb,red,0,r,1,0.6112952998373657
sub-1106725,120,blau,blue,1,b,1,0.6310018999502063
sub-113945,1,rot,yellow,0,g,1,1.3289680000161752
sub-113945,2,blau,yellow,0,g,1,1.4942702999978792
sub-113945,3,rot,blue,0,b,1,1.1371904000116049
sub-113945,4,gelb,yellow,1,g,1,0.9249501000158488
sub-113945,5,gelb,yellow,1,g,1,0.8163766000070609
sub-113945,6,gelb,blue,0,b,1,1.6324094000156038
sub-113945,7,gelb,red,0,r,1,1.123401599994395
sub-113945,8,blau,blue,1,b,1,1.3159953999856953
sub-113945,9,blau,blue,1,b,1,0.6532523999921978
sub-113945,10,rot,red,1,r,1,0.9144419000076596
sub-113945,11,blau,red,0,r,1,1.1693148000049405
sub-113945,12,rot,red,1,r,1,0.6516061000002082
sub-113945,13,gelb,yellow,1,g,1,0.9007118000008631
sub-113945,14,gelb,blue,0,b,1,0.8048870000056922
sub-113945,15,blau,red,0,r,1,1.1827166999864858
sub-113945,16,gelb,red,0,r,1,1.3687904000107665
sub-113945,17,gelb,yellow,1,b,0,0.9292115999851376
sub-113945,18,rot,red,1,r,1,1.0133695999975316
sub-113945,19,blau,blue,1,b,1,1.053311000025133
sub-113945,20,blau,yellow,0,g,1,1.2277530999854207
sub-113945,21,rot,red,1,r,1,1.1012357999861706
sub-113945,22,rot,blue,0,b,1,1.6294645000016317
sub-113945,23,blau,blue,1,b,1,0.919122299994342
sub-113945,24,rot,yellow,0,g,1,1.2680528000055349
sub-113945,25,gelb,blue,0,b,1,1.491329400014365
sub-113945,26,gelb,red,0,r,1,0.9855461999832188
sub-113945,27,rot,yellow,0,g,1,1.3494394999870565
sub-113945,28,gelb,yellow,1,g,1,1.2158505000115838
sub-113945,29,rot,red,1,r,1,1.3975289999798406
sub-113945,30,rot,blue,0,b,1,1.2978832999942824
sub-113945,31,gelb,yellow,1,g,1,1.0332387000089511
sub-113945,32,blau,blue,1,b,1,1.1381515000248328
sub-113945,33,blau,blue,1,b,1,0.8071297999995295
sub-113945,34,blau,yellow,0,g,1,0.8565008000005037
sub-113945,35,rot,red,1,r,1,0.8391784999985248
sub-113945,36,blau,red,0,r,1,0.865759700012859
sub-113945,37,blau,blue,1,b,1,0.8000280999985989
sub-113945,38,rot,red,1,r,1,0.8893182000028901
sub-113945,39,gelb,red,0,r,1,1.2234207000001334
sub-113945,40,blau,red,0,r,1,0.9577445000177248
sub-113945,41,rot,red,1,r,1,0.582820499985246
sub-113945,42,gelb,blue,0,b,1,1.076428800006397
sub-113945,43,blau,yellow,0,g,1,0.9980299999879207
sub-113945,44,gelb,yellow,1,g,1,0.7947696000046562
sub-113945,45,rot,blue,0,b,1,1.5985664000036195
sub-113945,46,rot,yellow,0,g,1,1.9018191000213849
sub-113945,47,blau,blue,1,b,1,0.9911673000024166
sub-113945,48,gelb,yellow,1,g,1,1.2247774999996182
sub-113945,49,blau,red,0,r,1,0.9346996000094804
sub-113945,50,gelb,red,0,r,1,0.787364499992691
sub-113945,51,blau,yellow,0,g,1,1.821782300015912
sub-113945,52,rot,red,1,b,0,0.8243572000064887
sub-113945,53,rot,yellow,0,g,1,1.6866898000007495
sub-113945,54,rot,blue,0,b,1,1.480835800000932
sub-113945,55,gelb,yellow,1,g,1,1.5341182999836749
sub-113945,56,blau,blue,1,b,1,1.6693284999928435
sub-113945,57,gelb,yellow,1,g,1,0.7085812000150327
sub-113945,58,blau,blue,1,b,1,1.0870284000120591
sub-113945,59,rot,red,1,r,1,0.9556606999831274
sub-113945,60,gelb,blue,0,b,1,1.215355099993758
sub-113945,61,rot,red,1,r,1,1.516735500015784
sub-113945,62,blau,red,0,r,1,0.88638099998934194
sub-113945,63,rot,yellow,0,g,1,1.1276241000159644
sub-113945,64,blau,blue,1,b,1,1.1183198999788146
sub-113945,65,blau,blue,1,b,1,0.6892216999840457
sub-113945,66,gelb,yellow,1,g,1,0.8076464999758173
sub-113945,67,gelb,red,0,r,1,0.9912114000180736
sub-113945,68,rot,red,1,r,1,1.6039340999850538
sub-113945,69,gelb,yellow,1,g,1,0.7873398999799974
sub-113945,70,gelb,blue,0,b,1,1.7971781000087503
sub-113945,71,rot,blue,0,b,1,1.411270800017519
sub-113945,72,blau,yellow,0,g,1,0.9926822999841534
sub-113945,73,rot,red,1,r,1,0.6111507999885362
sub-113945,74,blau,yellow,0,g,1,0.9155155000044032
sub-113945,75,blau,blue,1,b,1,0.9494166999938898
sub-113945,76,gelb,yellow,1,g,1,0.7816139000060502
sub-113945,77,rot,blue,0,b,1,1.410897699999623
sub-113945,78,blau,red,0,r,1,1.380181899992749
sub-113945,79,blau,blue,1,b,1,1.110254500003066
sub-113945,80,rot,yellow,0,g,1,1.4894415000162553
sub-113945,81,rot,red,1,r,1,1.2042501000105403
sub-113945,82,gelb,blue,0,b,1,1.2914185999834444
sub-113945,83,gelb,red,0,r,1,1.2005899000214413
sub-113945,84,gelb,yellow,1,g,1,1.1925928000127897
sub-113945,85,gelb,blue,0,b,1,1.8542364000168163
sub-113945,86,blau,blue,1,b,1,0.9231312999909278
sub-113945,87,rot,yellow,0,g,1,1.2818737000052352
sub-113945,88,blau,yellow,0,g,1,1.41528180000023
sub-113945,89,rot,red,1,r,1,0.8617526000016369
sub-113945,90,rot,red,1,r,1,0.7994139999791514
sub-113945,91,blau,blue,1,b,1,0.8749194999982137
sub-113945,92,gelb,yellow,1,g,1,0.6737879000138491
sub-113945,93,rot,blue,0,b,1,1.4647642999771051
sub-113945,94,gelb,yellow,1,g,1,0.8102375000016764
sub-113945,95,blau,red,0,r,1,1.6705371999996714
sub-113945,96,gelb,red,0,r,1,1.4822523999901025
sub-113945,97,blau,blue,1,b,1,1.0906724999949802
sub-113945,98,blau,red,0,r,1,1.2688995999924373
sub-113945,99,gelb,yellow,1,g,1,0.8335478999943007
sub-113945,100,rot,red,1,r,1,1.175063600006979
sub-113945,101,blau,blue,1,b,1,0.8185292999842204
sub-113945,102,blau,yellow,0,g,1,1.378133299993351
sub-113945,103,rot,yellow,0,g,1,1.965990299999248
sub-113945,104,gelb,yellow,1,g,1,0.7522472999989986
sub-113945,105,gelb,red,0,r,1,1.54851970000891
sub-113945,106,rot,red,1,r,1,0.923826599988388
sub-113945,107,rot,blue,0,b,1,1.367376600013813
sub-113945,108,gelb,blue,0,b,1,1.5476040999928955
sub-113945,109,gelb,yellow,1,g,1,0.8835584999760613
sub-113945,110,blau,blue,1,b,1,1.319412899989402
sub-113945,111,rot,blue,0,b,1,0.6098423000075854
sub-113945,112,rot,red,1,r,1,0.809289800003171
sub-113945,113,gelb,yellow,1,g,1,0.7230126000067685
sub-113945,114,rot,red,1,r,1,0.5868143000116106
sub-113945,115,blau,yellow,0,g,1,1.2520781000202987
sub-113945,116,rot,yellow,0,g,1,0.8158297000045422
sub-113945,117,gelb,blue,0,b,1,0.5959530000109226
sub-113945,118,blau,red,0,r,1,0.7363595999777317
sub-113945,119,blau,blue,1,b,1,0.6993267000070773
sub-113945,120,gelb,red,0,r,1,1.1482794000185097
sub-11797633,1,rot,yellow,0,g,1,1.5487710000015795
sub-11797633,2,rot,red,1,r,1,1.5408057000022382
sub-11797633,3,gelb,blue,0,b,1,1.0327247999957765
sub-11797633,4,gelb,red,0,r,1,0.999952000012854
sub-11797633,5,blau,yellow,0,g,1,1.1132216999831144
sub-11797633,6,blau,red,0,r,1,1.097454800008563
sub-11797633,7,blau,blue,1,b,1,1.11894869999378
sub-11797633,8,blau,blue,1,b,1,0.8781845000048634
sub-11797633,9,gelb,yellow,1,g,1,1.3949349999893457
sub-11797633,10,rot,red,1,r,1,0.966648300003726
sub-11797633,11,gelb,yellow,1,g,1,1.1704102999938186
sub-11797633,12,rot,blue,0,b,1,1.0389945000060834
sub-11797633,13,gelb,blue,0,b,1,1.089708999992581
sub-11797633,14,rot,yellow,0,g,1,1.4522340999974404
sub-11797633,15,gelb,yellow,1,g,1,0.9556281999975909
sub-11797633,16,blau,red,0,r,1,1.281816400005482
sub-11797633,17,rot,red,1,r,1,1.0189788000134286
sub-11797633,18,blau,yellow,0,g,1,1.0791424000053669
sub-11797633,19,gelb,yellow,1,g,1,1.027321400004439
sub-11797633,20,gelb,red,0,r,1,1.26511420001043
sub-11797633,21,blau,blue,1,b,1,0.939173299993854
sub-11797633,22,rot,blue,0,b,1,0.910427199996775
sub-11797633,23,rot,red,1,r,1,1.286454099987168
sub-11797633,24,blau,blue,1,b,1,1.0476985999848694
sub-11797633,25,gelb,yellow,1,g,1,1.5103240000025837
sub-11797633,26,gelb,red,0,r,1,1.0035688999923875
sub-11797633,27,gelb,blue,0,b,1,1.3686872000107542
sub-11797633,28,rot,red,1,r,1,1.0775529999809803
sub-11797633,29,blau,yellow,0,g,1,1.1658022000046913
sub-11797633,30,rot,blue,0,b,1,1.2573078999994325
sub-11797633,31,rot,yellow,0,g,1,1.433660199982114
sub-11797633,32,blau,red,0,r,1,1.0428799000219442
sub-11797633,33,blau,blue,1,b,1,1.163034700002754
sub-11797633,34,blau,blue,1,b,1,0.9676911999995356
sub-11797633,35,gelb,yellow,1,g,1,1.623498600005405
sub-11797633,36,rot,red,1,r,1,1.31213679999928
sub-11797633,37,gelb,red,0,r,1,1.18535659997724
sub-11797633,38,blau,red,0,r,1,1.2085697000147777
sub-11797633,39,rot,red,1,r,1,1.0516270000080112
sub-11797633,40,rot,blue,0,b,1,1.016745600005379
sub-11797633,41,gelb,yellow,1,g,1,1.071347600023728
sub-11797633,42,blau,blue,1,b,1,1.039641900017159
sub-11797633,43,gelb,yellow,1,g,1,1.571389699995052
sub-11797633,44,rot,red,1,r,1,1.2388103000121191
sub-11797633,45,gelb,blue,0,b,1,1.0805373000039251
sub-11797633,46,blau,yellow,0,g,1,1.200071699975524
sub-11797633,47,blau,blue,1,b,1,1.0020624000171665
sub-11797633,48,rot,yellow,0,g,1,1.0770916999899782
sub-11797633,49,blau,red,0,r,1,0.9252803999988828
sub-11797633,50,rot,red,1,r,1,0.8631848999939393
sub-11797633,51,gelb,yellow,1,g,1,1.3086763999890536
sub-11797633,52,gelb,red,0,r,1,2.6534262000059243
sub-11797633,53,blau,blue,1,b,1,1.3079679000074975
sub-11797633,54,gelb,blue,0,b,1,0.952371299994411
sub-11797633,55,rot,blue,0,b,1,1.1184025999973528
sub-11797633,56,rot,red,1,r,1,1.0063463999831583
sub-11797633,57,blau,blue,1,b,1,3.9516648999997415
sub-11797633,58,blau,yellow,0,g,1,1.2314480999775697
sub-11797633,59,rot,yellow,0,g,1,1.0784073999966497
sub-11797633,60,gelb,yellow,1,g,1,1.0381569000019226
sub-11797633,61,gelb,blue,0,b,1,1.0880188000155613
sub-11797633,62,gelb,yellow,1,g,1,1.0400505999859888
sub-11797633,63,rot,red,1,r,1,1.121607800014317
sub-11797633,64,rot,blue,0,b,1,1.0208171999838669
sub-11797633,65,blau,blue,1,b,1,0.778861800004961
sub-11797633,66,gelb,yellow,1,g,1,1.4874540000164416
sub-11797633,67,rot,yellow,0,g,1,0.8590844999998808
sub-11797633,68,blau,yellow,0,g,1,1.023108900000807
sub-11797633,69,gelb,red,0,r,1,1.0315267000114543
sub-11797633,70,rot,red,1,r,1,0.9499658000131604
sub-11797633,71,blau,red,0,r,1,1.0023738000018056
sub-11797633,72,blau,blue,1,b,1,1.357011499989312
sub-11797633,73,blau,yellow,0,g,1,1.350366300001042
sub-11797633,74,blau,blue,1,b,1,0.8437167000083718
sub-11797633,75,gelb,yellow,1,g,1,1.2740265000029467
sub-11797633,76,gelb,blue,0,b,1,1.2124557000061031
sub-11797633,77,rot,red,1,r,1,1.0478856999834534
sub-11797633,78,blau,blue,1,b,1,1.1788957999960985
sub-11797633,79,rot,blue,0,b,1,0.8673970999952871
sub-11797633,80,rot,red,1,r,1,1.4014600999944378
sub-11797633,81,gelb,red,0,r,1,0.9132837999786716
sub-11797633,82,gelb,yellow,1,g,1,0.8284499000001233
sub-11797633,83,rot,yellow,0,g,1,0.8368618999957107
sub-11797633,84,blau,red,0,r,1,0.8793364000157453
sub-11797633,85,gelb,yellow,1,g,1,1.346683400013717
sub-11797633,86,blau,blue,1,b,1,0.8980614999891259
sub-11797633,87,gelb,yellow,1,g,1,1.000280299980659
sub-11797633,88,gelb,red,0,r,1,1.101617800013628
sub-11797633,89,gelb,blue,0,b,1,1.1975312999857124
sub-11797633,90,rot,yellow,0,g,1,1.2383450000197629
sub-11797633,91,blau,blue,1,b,1,0.9492953000008127
sub-11797633,92,rot,red,1,r,1,1.1220182999968529
sub-11797633,93,rot,red,1,r,1,0.8497736999997869
sub-11797633,94,blau,red,0,r,1,1.4133491999818943
sub-11797633,95,blau,yellow,0,g,1,1.347052299999632
sub-11797633,96,rot,blue,0,b,1,1.039724499976728
sub-11797633,97,gelb,red,0,r,1,1.6008328000025358
sub-11797633,98,rot,blue,0,b,1,0.9436023000162096
sub-11797633,99,gelb,blue,0,b,1,0.9943398000032176
sub-11797633,100,blau,yellow,0,g,1,1.1162335999833886
sub-11797633,101,blau,blue,1,b,1,0.9697070999827702
sub-11797633,102,rot,red,1,r,1,0.8584494999959134
sub-11797633,103,rot,yellow,0,g,1,1.122932600002969
sub-11797633,104,gelb,yellow,1,g,1,0.8628738000115845
sub-11797633,105,blau,blue,1,b,1,1.1372641999914777
sub-11797633,106,rot,red,1,r,1,0.6292411999893375
sub-11797633,107,blau,red,0,r,1,1.536400599987246
sub-11797633,108,gelb,yellow,1,g,1,0.9492122000083328
sub-11797633,109,blau,blue,1,b,1,0.9707963000109884
sub-11797633,110,gelb,red,0,r,1,0.9388710999919568
sub-11797633,111,blau,yellow,0,g,1,0.9800975999969525
sub-11797633,112,rot,yellow,0,g,1,0.7667830999998841
sub-11797633,113,rot,red,1,r,1,0.8846628000028431
sub-11797633,114,rot,red,1,r,1,0.8555627000168897
sub-11797633,115,blau,blue,1,b,1,0.9508422000217251
sub-11797633,116,gelb,yellow,1,g,1,1.5217040999850724
sub-11797633,117,gelb,blue,0,b,1,1.1505288000043947
sub-11797633,118,gelb,yellow,1,g,1,1.3017902999999933
sub-11797633,119,blau,red,0,r,1,0.91630039998563
sub-11797633,120,rot,blue,0,b,1,0.9927589000144508
sub-11959984,1,rot,blue,0,b,1,0.6079916000016965
sub-11959984,2,gelb,blue,0,b,1,0.5834577000023273
sub-11959984,3,rot,red,1,r,1,0.43206540000028326
sub-11959984,4,rot,red,1,r,1,0.4486402000002272
sub-11959984,5,gelb,red,0,r,1,0.4388053000002401
sub-11959984,6,gelb,yellow,1,g,1,0.4914390000012645
sub-11959984,7,gelb,yellow,1,g,1,0.36630929999955697
sub-11959984,8,rot,yellow,0,g,1,0.4071504999992612
sub-11959984,9,blau,red,0,r,1,0.7511333000002196
sub-11959984,10,blau,blue,1,b,1,0.6832381999993231
sub-11959984,11,blau,yellow,0,g,1,0.6400683000028948
sub-11959984,12,blau,blue,1,b,1,0.5409399999989546
sub-11959984,13,blau,blue,1,b,1,0.3881107000015618
sub-11959984,14,rot,yellow,0,g,1,0.8270800999998755
sub-11959984,15,gelb,red,0,r,1,1.401189300002443
sub-11959984,16,gelb,yellow,1,g,1,0.5660557000010158
sub-11959984,17,gelb,yellow,1,g,1,0.4460330000001704
sub-11959984,18,rot,red,1,r,1,0.5779213000023447
sub-11959984,19,blau,yellow,0,g,1,0.840221800001018
sub-11959984,20,blau,red,0,r,1,0.998524599999655
sub-11959984,21,gelb,blue,0,b,1,0.6271354000018619
sub-11959984,22,rot,red,1,r,1,0.6495313999985228
sub-11959984,23,rot,blue,0,b,1,0.822394599999825
sub-11959984,24,blau,blue,1,b,1,0.48256909999690834
sub-11959984,25,rot,yellow,0,g,1,1.2296170000008717
sub-11959984,26,gelb,red,0,r,1,0.7393891000028816
sub-11959984,27,blau,blue,1,b,1,0.5949858000021777
sub-11959984,28,blau,blue,1,b,1,0.5122784999985015
sub-11959984,29,gelb,yellow,1,g,1,0.531243600002199
sub-11959984,30,blau,yellow,0,g,1,0.4082582999981242
sub-11959984,31,gelb,blue,0,b,1,0.5745820999982243
sub-11959984,32,blau,red,0,r,1,0.6686539000002085
sub-11959984,33,rot,red,1,r,1,0.4114891000026546
sub-11959984,34,rot,red,1,r,1,0.3781617999993614
sub-11959984,35,rot,blue,0,b,1,1.90716059999977
sub-11959984,36,gelb,yellow,1,g,1,0.5186539000023913
sub-11959984,37,rot,blue,0,b,1,0.4488309000007576
sub-11959984,38,gelb,blue,0,b,1,0.3651245000000927
sub-11959984,39,gelb,yellow,1,g,1,0.39820269999836455
sub-11959984,40,blau,yellow,0,g,1,0.4752465000019584
sub-11959984,41,blau,blue,1,b,1,0.45615019999968354
sub-11959984,42,rot,yellow,0,g,1,0.6117481000001135
sub-11959984,43,rot,red,1,r,1,0.573475100001815
sub-11959984,44,blau,blue,1,b,1,0.6188245999983337
sub-11959984,45,gelb,red,0,r,1,0.9263003999985812
sub-11959984,46,blau,red,0,r,1,0.4643967000010889
sub-11959984,47,rot,red,1,r,1,0.4162533999988227
sub-11959984,48,gelb,yellow,1,g,1,0.5268101000001479
sub-11959984,49,rot,yellow,0,g,1,0.47777359999963664
sub-11959984,50,rot,red,1,r,1,0.8928464999989956
sub-11959984,51,blau,blue,1,b,1,0.5003928000005544
sub-11959984,52,gelb,yellow,1,g,1,0.5528804999994463
sub-11959984,53,blau,yellow,0,g,1,0.4842738000006648
sub-11959984,54,rot,red,1,r,1,0.5340572000022803
sub-11959984,55,gelb,blue,0,b,1,0.7730807000007189
sub-11959984,56,gelb,red,0,r,1,0.9198214999996708
sub-11959984,57,rot,blue,0,b,1,0.916713400001754
sub-11959984,58,gelb,yellow,1,g,1,0.8254581000001053
sub-11959984,59,blau,blue,1,b,1,0.6059552000006079
sub-11959984,60,blau,red,0,r,1,0.6188397000005352
sub-11959984,61,blau,yellow,0,g,1,0.734238600001845
sub-11959984,62,rot,red,1,r,1,0.5620307999997749
sub-11959984,63,gelb,yellow,1,g,1,0.6006831000013335
sub-11959984,64,rot,blue,0,b,1,0.7204939000002923
sub-11959984,65,blau,red,0,r,1,0.6683659999980591
sub-11959984,66,blau,blue,1,b,1,0.5844065999990562
sub-11959984,67,rot,red,1,r,1,0.5837138000024424
sub-11959984,68,gelb,yellow,1,r,0,0.45238030000109575
sub-11959984,69,rot,yellow,0,g,1,0.8279641000008269
sub-11959984,70,gelb,blue,0,b,1,0.5399130000005243
sub-11959984,71,blau,blue,1,b,1,0.7313710999987961
sub-11959984,72,gelb,red,0,r,1,0.629912600001262
sub-11959984,73,rot,yellow,0,g,1,0.5057670999995025
sub-11959984,74,gelb,yellow,1,g,1,0.5059787999998662
sub-11959984,75,gelb,yellow,1,g,1,0.412976499999786
sub-11959984,76,blau,red,0,r,1,0.7934162999990804
sub-11959984,77,blau,yellow,0,g,1,1.104968399999052
sub-11959984,78,rot,blue,0,b,1,0.7251993999998376
sub-11959984,79,gelb,red,0,r,1,0.6214609000016935
sub-11959984,80,blau,blue,1,b,1,0.5618971000003512
sub-11959984,81,blau,blue,1,b,1,0.4688134999996692
sub-11959984,82,gelb,blue,0,b,1,0.4493844999997236
sub-11959984,83,rot,red,1,r,1,0.5164963999995962
sub-11959984,84,rot,red,1,r,1,0.3820745000011811
sub-11959984,85,gelb,yellow,1,g,1,0.5592925000019022
sub-11959984,86,gelb,red,0,r,1,0.9300999000006414
sub-11959984,87,gelb,blue,0,b,1,0.5534127999999328
sub-11959984,88,blau,blue,1,b,1,0.3990124000010837
sub-11959984,89,rot,red,1,r,1,0.6206753000005847
sub-11959984,90,rot,yellow,0,g,1,0.6122598000001744
sub-11959984,91,gelb,yellow,1,g,1,0.6011557999991055
sub-11959984,92,rot,blue,0,b,1,0.7124963000023854
sub-11959984,93,rot,red,1,r,1,0.6201462000026368
sub-11959984,94,blau,blue,1,b,1,0.593776000001526
sub-11959984,95,blau,red,0,r,1,0.6021404999992228
sub-11959984,96,blau,yellow,0,g,1,0.8234871999993629
sub-11959984,97,gelb,red,0,r,1,0.9484894000015628
sub-11959984,98,blau,yellow,0,g,1,0.6115255000004254
sub-11959984,99,rot,yellow,0,g,1,0.4592990999990434
sub-11959984,100,blau,red,0,r,1,0.6559697999982745
sub-11959984,101,rot,blue,0,b,1,0.6507626000020537
sub-11959984,102,blau,blue,1,b,1,0.4627528000019083
sub-11959984,103,gelb,blue,0,b,1,0.3868020000008983
sub-11959984,104,blau,blue,1,b,1,0.4024731000026805
sub-11959984,105,rot,red,1,r,1,0.5254101999998966
sub-11959984,106,gelb,yellow,1,g,1,0.6987296999977843
sub-11959984,107,rot,red,1,r,1,0.5957178999997268
sub-11959984,108,gelb,yellow,1,r,0,0.6631428000000597
sub-11959984,109,rot,red,1,r,1,0.4202748999996402
sub-11959984,110,gelb,blue,0,b,1,0.5390985999983968
sub-11959984,111,rot,red,1,r,1,0.5306841999990866
sub-11959984,112,blau,blue,1,b,1,0.51529070000106
sub-11959984,113,blau,yellow,0,g,1,0.5581387000020186
sub-11959984,114,blau,red,0,b,0,0.5602954999994836
sub-11959984,115,rot,yellow,0,g,1,0.6041308999992907
sub-11959984,116,rot,blue,0,b,1,0.7220057000013185
sub-11959984,117,gelb,yellow,1,g,1,0.5909412000000884
sub-11959984,118,gelb,yellow,1,g,1,0.4579733999999007
sub-11959984,119,gelb,red,0,r,1,0.49201840000023367
sub-11959984,120,blau,blue,1,b,1,0.5530914999981178
sub-12224605,1,blau,red,0,r,1,0.7960772079999856
sub-12224605,2,gelb,blue,0,b,1,0.730721458000005
sub-12224605,3,rot,yellow,0,g,1,0.8174917500000447
sub-12224605,4,blau,blue,1,b,1,0.5166478749999897
sub-12224605,5,gelb,yellow,1,g,1,0.583441500000049
sub-12224605,6,gelb,red,0,r,1,0.6207544170000006
sub-12224605,7,rot,red,1,r,1,0.4321937089999892
sub-12224605,8,gelb,yellow,1,g,1,0.9135408330000132
sub-12224605,9,blau,yellow,0,g,1,1.0609117910000236
sub-12224605,10,rot,blue,0,b,1,0.6434884999999895
sub-12224605,11,rot,red,1,r,1,0.7131554160000064
sub-12224605,12,blau,blue,1,b,1,1.895472250000012
sub-12224605,13,gelb,blue,0,b,1,0.8633589579999921
sub-12224605,14,rot,blue,0,b,1,0.839842625000017
sub-12224605,15,rot,yellow,0,g,1,0.9190647500000182
sub-12224605,16,gelb,yellow,1,g,1,0.8582651670000132
sub-12224605,17,blau,yellow,0,g,1,1.1289764999999647
sub-12224605,18,blau,blue,1,b,1,0.6759015840000302
sub-12224605,19,rot,red,1,r,1,0.67895770799998445
sub-12224605,20,gelb,red,0,r,1,0.9438829580000174
sub-12224605,21,blau,red,0,r,1,0.7925838749999912
sub-12224605,22,blau,blue,1,b,1,0.5632332499999961
sub-12224605,23,gelb,yellow,1,g,1,1.6508028330000002
sub-12224605,24,rot,red,1,r,1,0.4674413340000001
sub-12224605,25,rot,red,1,r,1,0.5722243750000189
sub-12224605,26,rot,red,1,r,1,0.37308008299999074
sub-12224605,27,rot,blue,0,b,1,0.8946398340000314
sub-12224605,28,gelb,blue,0,b,1,0.9500140420000208
sub-12224605,29,blau,red,0,r,1,1.1386709580000345
sub-12224605,30,blau,yellow,0,g,1,0.8228421249999656
sub-12224605,31,rot,yellow,0,g,1,0.6647393749999537
sub-12224605,32,gelb,red,0,r,1,0.7852419580000287
sub-12224605,33,gelb,yellow,1,g,1,1.106394082999998
sub-12224605,34,blau,blue,1,b,1,0.5516648340000074
sub-12224605,35,blau,blue,1,b,1,1.0610163329999978
sub-12224605,36,gelb,yellow,1,g,1,0.6481824589999974
sub-12224605,37,gelb,yellow,1,g,1,0.5618597499999964
sub-12224605,38,blau,red,0,r,1,0.4904812500000162
sub-12224605,39,blau,yellow,0,g,1,1.4108620000000087
sub-12224605,40,rot,red,1,r,1,0.8330787919999807
sub-12224605,41,rot,blue,0,b,1,0.6292989170000283
sub-12224605,42,gelb,yellow,1,g,1,0.8787297089999697
sub-12224605,43,gelb,red,0,r,1,0.527745374999995
sub-12224605,44,gelb,blue,0,b,1,1.5510053749999884
sub-12224605,45,rot,red,1,r,1,0.6352412089999575
sub-12224605,46,blau,blue,1,b,1,0.7202112499999771
sub-12224605,47,blau,blue,1,b,1,0.941892542000005
sub-12224605,48,rot,yellow,0,g,1,1.056676207999999
sub-12224605,49,gelb,red,0,r,1,0.43492774999998574
sub-12224605,50,gelb,yellow,1,g,1,0.8642060839999886
sub-12224605,51,rot,red,1,r,1,1.0933694999999943
sub-12224605,52,blau,blue,1,b,1,0.8818121669999641
sub-12224605,53,gelb,blue,0,b,1,1.1607819170000084
sub-12224605,54,blau,blue,1,b,1,0.45800637500002495
sub-12224605,55,rot,red,1,r,1,0.588616959000035
sub-12224605,56,blau,yellow,0,g,1,0.6995441660000097
sub-12224605,57,rot,yellow,0,g,1,0.4992426249999653
sub-12224605,58,gelb,yellow,1,g,1,0.6618600830000219
sub-12224605,59,blau,red,0,r,1,0.792548791999991
sub-12224605,60,rot,blue,0,b,1,0.6072021670000254
sub-12224605,61,rot,yellow,0,g,1,1.1416517079999835
sub-12224605,62,rot,red,1,r,1,0.5131112500000086
sub-12224605,63,rot,red,1,r,1,0.4401097089999553
sub-12224605,64,blau,yellow,0,g,1,0.8793673330000047
sub-12224605,65,gelb,yellow,1,g,1,1.1918037089999984
sub-12224605,66,rot,blue,0,b,1,0.738112875000013
sub-12224605,67,gelb,yellow,1,g,1,1.8573890829999868
sub-12224605,68,blau,blue,1,b,1,0.5854132499999878
sub-12224605,69,blau,red,0,r,1,0.5389372910000247
sub-12224605,70,gelb,blue,0,b,1,1.1246372080000242
sub-12224605,71,blau,blue,1,b,1,0.5755022499999995
sub-12224605,72,gelb,red,0,r,1,0.5342364159999988
sub-12224605,73,blau,blue,1,b,1,0.5644069580000064
sub-12224605,74,gelb,yellow,1,g,1,0.8062022499999557
sub-12224605,75,rot,blue,0,b,1,2.873489500000005
sub-12224605,76,rot,red,1,r,1,0.5041335000000231
sub-12224605,77,blau,yellow,0,g,1,1.4819813330000216
sub-12224605,78,blau,blue,1,b,1,0.6224587080000106
sub-12224605,79,gelb,yellow,1,g,1,0.7558947079999712
sub-12224605,80,rot,yellow,0,g,1,1.0026292500000409
sub-12224605,81,rot,red,1,r,1,0.7517715420000286
sub-12224605,82,gelb,blue,0,b,1,1.0066087079999877
sub-12224605,83,blau,red,0,b,0,0.7642759580000416
sub-12224605,84,gelb,red,0,r,1,0.9762102920000189
sub-12224605,85,gelb,yellow,1,g,1,0.6278039579999586
sub-12224605,86,blau,blue,1,b,1,0.5513710829999923
sub-12224605,87,gelb,yellow,1,g,1,0.751708624999992
sub-12224605,88,rot,blue,0,b,1,1.018377792000024
sub-12224605,89,rot,red,1,r,1,1.0177038330000414
sub-12224605,90,gelb,blue,0,b,1,1.438784958000042
sub-12224605,91,gelb,red,0,g,0,1.291758249999987
sub-12224605,92,blau,yellow,0,g,1,1.306441124999992
sub-12224605,93,blau,red,0,r,1,1.1620467079999912
sub-12224605,94,rot,yellow,0,g,1,1.0270417500000235
sub-12224605,95,blau,blue,1,b,1,0.9453291250000008
sub-12224605,96,rot,red,1,r,1,1.4627228749999972
sub-12224605,97,gelb,red,0,r,1,1.6664042500000278
sub-12224605,98,gelb,yellow,1,g,1,2.5746331660000124
sub-12224605,99,blau,blue,1,b,1,1.011728957999992
sub-12224605,100,gelb,blue,0,b,1,2.083572167
sub-12224605,101,blau,blue,1,b,1,0.8958888750000256
sub-12224605,102,blau,yellow,0,g,1,0.8649271670000189
sub-12224605,103,rot,red,1,r,1,0.9820632920000208
sub-12224605,104,rot,blue,0,b,1,1.1005348329999831
sub-12224605,105,rot,red,1,r,1,1.1185477920000153
sub-12224605,106,gelb,yellow,1,g,1,1.1351646250000158
sub-12224605,107,blau,red,0,r,1,0.9490700840000272
sub-12224605,108,rot,yellow,0,g,1,1.1738712090000265
sub-12224605,109,rot,yellow,0,g,1,1.7760213750000275
sub-12224605,110,rot,red,1,r,1,0.7444893330000468
sub-12224605,111,blau,red,0,r,1,1.1036477920000607
sub-12224605,112,gelb,blue,0,b,1,1.1139358750000383
sub-12224605,113,blau,blue,1,b,1,0.70687037499999406
sub-12224605,114,rot,blue,0,b,1,1.080114166000044
sub-12224605,115,gelb,yellow,1,g,1,1.5527574999999842
sub-12224605,116,gelb,yellow,1,g,1,0.658635874999959
sub-12224605,117,blau,blue,1,b,1,0.7602650840000251
sub-12224605,118,rot,red,1,r,1,0.6239956250000205
sub-12224605,119,gelb,red,0,r,1,0.5455267079998976
sub-12224605,120,blau,yellow,0,g,1,2.41655004200004
sub-12242654,1,blau,yellow,0,g,1,0.9898408290000588
sub-12242654,2,blau,red,0,r,1,0.7611671109998497
sub-12242654,3,rot,red,1,r,1,0.6425881909999589
sub-12242654,4,rot,red,1,r,1,0.5257037750002382
sub-12242654,5,gelb,yellow,1,g,1,0.8028319419995569
sub-12242654,6,gelb,yellow,1,g,1,0.7539077250003174
sub-12242654,7,rot,yellow,0,g,1,0.886954672000229
sub-12242654,8,blau,blue,1,b,1,0.8372273130003123
sub-12242654,9,gelb,red,0,r,1,0.9487773729997572
sub-12242654,10,rot,blue,0,b,1,0.8719210680001197
sub-12242654,11,gelb,blue,0,b,1,1.177908663999915
sub-12242654,12,blau,blue,1,b,1,0.6494910759997765
sub-12242654,13,gelb,yellow,1,g,1,1.126174421000087
sub-12242654,14,blau,blue,1,b,1,0.7945384330000707
sub-12242654,15,rot,blue,0,b,1,1.1119533429996409
sub-12242654,16,gelb,blue,0,b,1,0.6393663329999981
sub-12242654,17,gelb,red,0,r,1,0.8325875509999605
sub-12242654,18,blau,red,0,r,1,2.141321512000104
sub-12242654,19,rot,red,1,r,1,0.836508658999719
sub-12242654,20,gelb,yellow,1,g,1,0.970930253000006
sub-12242654,21,blau,blue,1,b,1,0.7457236160003049
sub-12242654,22,rot,red,1,r,1,1.1250426860001426
sub-12242654,23,blau,yellow,0,b,0,0.7453433880000375
sub-12242654,24,rot,yellow,0,r,0,0.9923792429999594
sub-12242654,25,blau,blue,1,b,1,0.9589929240000856
sub-12242654,26,blau,yellow,0,g,1,1.120342726999752
sub-12242654,27,rot,red,1,r,1,0.9222706440000366
sub-12242654,28,rot,blue,0,b,1,0.8470670450001307
sub-12242654,29,rot,red,1,r,1,0.8099031729998387
sub-12242654,30,gelb,blue,0,b,1,1.0990255419997084
sub-12242654,31,gelb,red,0,r,1,0.8743299220000154
sub-12242654,32,rot,yellow,0,g,1,1.2667424109999956
sub-12242654,33,blau,red,0,r,1,0.9090532670002176
sub-12242654,34,gelb,yellow,1,g,1,0.9751817599999412
sub-12242654,35,gelb,yellow,1,g,1,0.6689565340002446
sub-12242654,36,blau,blue,1,b,1,0.753197900000032
sub-12242654,37,blau,red,0,r,1,0.86988931399992
sub-12242654,38,blau,yellow,0,g,1,1.2562637050000376
sub-12242654,39,gelb,yellow,1,g,1,1.0761576919999245
sub-12242654,40,rot,red,1,r,1,1.5051791880000565
sub-12242654,41,gelb,yellow,1,g,1,1.2935963489999267
sub-12242654,42,rot,yellow,0,g,1,2.6324503870000626
sub-12242654,43,gelb,red,0,r,1,0.8741692130001866
sub-12242654,44,rot,red,1,r,1,0.9704706719999194
sub-12242654,45,blau,blue,1,b,1,0.7544106300001658
sub-12242654,46,gelb,blue,0,b,1,1.1051873820001674
sub-12242654,47,rot,blue,0,b,1,1.4716649040001355
sub-12242654,48,blau,blue,1,b,1,0.8899732229997426
sub-12242654,49,rot,red,1,r,1,0.8536021869999786
sub-12242654,50,gelb,yellow,1,g,1,0.9592694899997696
sub-12242654,51,blau,yellow,0,g,1,1.4676906159997998
sub-12242654,52,blau,blue,1,b,1,0.7326927099998102
sub-12242654,53,gelb,red,0,r,1,0.9772938420001084
sub-12242654,54,blau,red,0,r,1,1.499522104999869
sub-12242654,55,gelb,blue,0,b,1,1.0044241199998396
sub-12242654,56,rot,blue,0,b,1,1.42876408300026
sub-12242654,57,gelb,yellow,1,g,1,1.1808752430001732
sub-12242654,58,blau,blue,1,b,1,0.6839456890002111
sub-12242654,59,rot,yellow,0,g,1,1.211629465999977
sub-12242654,60,rot,red,1,r,1,1.3874381169998742
sub-12242654,61,gelb,red,0,r,1,0.8870278879999205
sub-12242654,62,rot,red,1,r,1,0.8985200900001473
sub-12242654,63,rot,red,1,r,1,0.628802892999829
sub-12242654,64,blau,yellow,0,g,1,1.031464206000237
sub-12242654,65,rot,blue,0,b,1,0.7005556290000641
sub-12242654,66,blau,blue,1,b,1,0.693584496999847
sub-12242654,67,blau,red,0,r,1,1.063858929000162
sub-12242654,68,blau,blue,1,b,1,0.7620048870003302
sub-12242654,69,rot,yellow,0,g,1,1.0499751229999674
sub-12242654,70,gelb,yellow,1,g,1,1.2805801180002163
sub-12242654,71,gelb,yellow,1,g,1,0.5413800760002232
sub-12242654,72,gelb,blue,0,b,1,0.8881110170000284
sub-12242654,73,blau,blue,1,b,1,0.90376255900037
sub-12242654,74,gelb,yellow,1,g,1,1.004760394999721
sub-12242654,75,blau,blue,1,b,1,0.7751319300000432
sub-12242654,76,gelb,yellow,1,g,1,1.307632754000224
sub-12242654,77,gelb,red,0,r,1,0.8184106060002705
sub-12242654,78,rot,red,1,r,1,1.6823443800003588
sub-12242654,79,rot,blue,0,b,1,0.8537519460001022
sub-12242654,80,rot,yellow,0,g,1,0.8273139850002735
sub-12242654,81,blau,yellow,0,g,1,1.3098215710001568
sub-12242654,82,blau,red,0,r,1,0.9374209110001176
sub-12242654,83,gelb,blue,0,b,1,1.153404770999714
sub-12242654,84,rot,red,1,r,1,0.8492940569999519
sub-12242654,85,gelb,blue,0,b,1,0.953456384999754
sub-12242654,86,gelb,red,0,r,1,1.3550427159998435
sub-12242654,87,gelb,yellow,1,g,1,0.5353380980000111
sub-12242654,88,blau,blue,1,b,1,0.6096346190001896
sub-12242654,89,rot,red,1,r,1,0.694813214000078
sub-12242654,90,rot,blue,0,b,1,0.9425808589999178
sub-12242654,91,rot,red,1,r,1,0.6529796879999594
sub-12242654,92,blau,blue,1,b,1,0.4951655899999423
sub-12242654,93,blau,red,0,r,1,1.0042285380000069
sub-12242654,94,rot,yellow,0,g,1,0.8339724409997871
sub-12242654,95,blau,yellow,0,g,1,1.4852536660000624
sub-12242654,96,gelb,yellow,1,g,1,0.565144242000315
sub-12242654,97,blau,blue,1,b,1,0.7922295319999648
sub-12242654,98,gelb,yellow,1,g,1,1.0051572729998952
sub-12242654,99,blau,blue,1,b,1,0.7202204019999954
sub-12242654,100,blau,red,0,r,1,1.5738359039996794
sub-12242654,101,rot,blue,0,b,1,1.2715630220000094
sub-12242654,102,rot,yellow,0,g,1,1.1203594650000923
sub-12242654,103,rot,red,1,r,1,1.305271532000006
sub-12242654,104,gelb,blue,0,b,1,1.7812330169999768
sub-12242654,105,gelb,red,0,r,1,1.0671805850001874
sub-12242654,106,rot,red,1,r,1,0.6493391359999805
sub-12242654,107,blau,yellow,0,g,1,1.1285958270000265
sub-12242654,108,gelb,yellow,1,g,1,0.9876090760003536
sub-12242654,109,gelb,blue,0,b,1,1.7890353950001554
sub-12242654,110,rot,red,1,r,1,0.6509682549999525
sub-12242654,111,rot,blue,0,b,1,1.9573805639997768
sub-12242654,112,blau,blue,1,b,1,0.8787088230001245
sub-12242654,113,rot,yellow,0,g,1,1.2667468979998375
sub-12242654,114,blau,blue,1,b,1,1.0766439560002254
sub-12242654,115,blau,red,0,r,1,0.8283041820000108
sub-12242654,116,rot,red,1,r,1,0.874722925000242
sub-12242654,117,gelb,red,0,r,1,1.0099209150002937
sub-12242654,118,gelb,yellow,1,g,1,0.7051273600000059
sub-12242654,119,blau,yellow,0,g,1,1.0320905930002482
sub-12242654,120,gelb,yellow,1,g,1,0.7842410779999227
sub-12477358,1,gelb,blue,0,b,1,1.6678899999969872
sub-12477358,2,rot,yellow,0,g,1,0.9208396000030916
sub-12477358,3,rot,red,1,r,1,0.6460561999992933
sub-12477358,4,rot,red,1,r,1,0.6520017000002554
sub-12477358,5,rot,blue,0,b,1,0.7080644999950891
sub-12477358,6,gelb,yellow,1,g,1,0.6404829000093741
sub-12477358,7,gelb,yellow,1,g,1,0.6951190999971004
sub-12477358,8,gelb,red,0,r,1,0.9527498000097694
sub-12477358,9,blau,blue,1,b,1,0.5659133000008296
sub-12477358,10,blau,yellow,0,g,1,0.9758065000060014
sub-12477358,11,blau,blue,1,b,1,0.9111873000074412
sub-12477358,12,blau,red,0,r,1,0.6751707999937935
sub-12477358,13,rot,blue,0,b,1,1.1271966000058455
sub-12477358,14,blau,yellow,0,g,1,0.6559414000075776
sub-12477358,15,rot,red,1,r,1,0.6485352999879979
sub-12477358,16,gelb,red,0,r,1,0.6576524999982212
sub-12477358,17,gelb,yellow,1,g,1,0.7226150999922538
sub-12477358,18,gelb,yellow,1,g,1,0.6072769000020344
sub-12477358,19,blau,blue,1,b,1,0.6155981999909272
sub-12477358,20,rot,yellow,0,g,1,0.9649092000036036
sub-12477358,21,blau,blue,1,b,1,0.6146488999947906
sub-12477358,22,gelb,blue,0,b,1,0.6615474999998696
sub-12477358,23,rot,red,1,r,1,1.0399144000111846
sub-12477358,24,blau,red,0,r,1,0.5245174999872688
sub-12477358,25,rot,red,1,r,1,0.4687560000020312
sub-12477358,26,blau,yellow,0,g,1,0.8170368999999482
sub-12477358,27,rot,yellow,0,g,1,0.6315130000002682
sub-12477358,28,blau,blue,1,b,1,0.6614046000031522
sub-12477358,29,rot,blue,0,b,1,0.6280395999929169
sub-12477358,30,blau,red,0,r,1,0.9984958000131884
sub-12477358,31,gelb,red,0,r,1,0.46898269999655895
sub-12477358,32,gelb,yellow,1,g,1,0.5929340000002412
sub-12477358,33,gelb,blue,0,b,1,0.5456927999912295
sub-12477358,34,gelb,yellow,1,g,1,0.9925423999957276
sub-12477358,35,blau,blue,1,b,1,0.6216227999975672
sub-12477358,36,rot,red,1,r,1,0.5189116999972612
sub-12477358,37,blau,yellow,0,g,1,0.8394548000069335
sub-12477358,38,gelb,blue,0,b,1,1.391535599992494
sub-12477358,39,rot,blue,0,b,1,0.6458563999913167
sub-12477358,40,rot,yellow,0,g,1,1.0044710999936797
sub-12477358,41,rot,red,1,r,1,0.6652914000005694
sub-12477358,42,blau,blue,1,b,1,0.6868785999977263
sub-12477358,43,gelb,yellow,1,g,1,2.224206900005811
sub-12477358,44,gelb,red,0,r,1,2.1431864999904064
sub-12477358,45,rot,red,1,r,1,1.079970000006142
sub-12477358,46,blau,blue,1,b,1,0.9898463999998056
sub-12477358,47,blau,red,0,r,1,2.9519486999924998
sub-12477358,48,gelb,yellow,1,g,1,7.564238999999361
sub-12477358,49,rot,yellow,0,g,1,0.7215173999866238
sub-12477358,50,rot,blue,0,b,1,1.1980009000108112
sub-12477358,51,gelb,red,0,r,1,1.5508157000003848
sub-12477358,52,blau,blue,1,b,1,0.654687099988223
sub-12477358,53,rot,red,1,r,1,2.144195500004571
sub-12477358,54,gelb,yellow,1,g,1,1.37833929999033
sub-12477358,55,blau,yellow,0,g,1,0.9170993000007002
sub-12477358,56,blau,red,0,r,1,3.3707423000014387
sub-12477358,57,gelb,blue,0,b,1,1.4386498000094434
sub-12477358,58,rot,red,1,r,1,1.94367589999456
sub-12477358,59,gelb,yellow,1,g,1,1.4050549999956274
sub-12477358,60,blau,blue,1,b,1,0.8074119000084465
sub-12477358,61,gelb,blue,0,b,1,0.4192282000003616
sub-12477358,62,gelb,yellow,1,g,1,0.8031827999948291
sub-12477358,63,gelb,red,0,r,1,0.6316987999889534
sub-12477358,64,rot,blue,0,b,1,1.3304761000035796
sub-12477358,65,rot,red,1,r,1,1.489826399993035
sub-12477358,66,blau,yellow,0,b,0,1.5108956000040052
sub-12477358,67,blau,blue,1,b,1,4.282315999997081
sub-12477358,68,rot,yellow,0,g,1,1.7696329000027615
sub-12477358,69,blau,blue,1,b,1,2.214252799996757
sub-12477358,70,blau,red,0,r,1,1.8494611000060104
sub-12477358,71,gelb,yellow,1,g,1,1.8423121999949217
sub-12477358,72,rot,red,1,r,1,1.7088237999996636
sub-12477358,73,blau,blue,1,b,1,1.542298900007154
sub-12477358,74,gelb,yellow,1,g,1,2.1588639999972656
sub-12477358,75,gelb,red,0,r,1,2.347639800005709
sub-12477358,76,rot,red,1,r,1,1.0793368000013288
sub-12477358,77,blau,red,0,r,1,0.5556974000064656
sub-12477358,78,gelb,yellow,1,g,1,0.9952274000097532
sub-12477358,79,rot,red,1,r,1,0.6171109999995679
sub-12477358,80,rot,yellow,0,g,1,1.2888799000065774
sub-12477358,81,blau,yellow,0,g,1,0.7838558000075864
sub-12477358,82,blau,blue,1,b,1,0.8275513999979012
sub-12477358,83,rot,blue,0,b,1,1.0116959000006318
sub-12477358,84,gelb,blue,0,b,1,0.6149839999998221
sub-12477358,85,blau,yellow,0,g,1,0.987764800011064
sub-12477358,86,rot,yellow,0,g,1,0.5570407000050182
sub-12477358,87,blau,blue,1,b,1,0.717050699997344
sub-12477358,88,blau,blue,1,b,1,0.4620924000046216
sub-12477358,89,gelb,yellow,1,g,1,0.6660704999958398
sub-12477358,90,gelb,yellow,1,g,1,0.4982657999935327
sub-12477358,91,gelb,blue,0,b,1,0.6712187999946764
sub-12477358,92,gelb,red,0,r,1,0.9404886999982408
sub-12477358,93,rot,blue,0,b,1,4.157825200003572
sub-12477358,94,rot,red,1,r,1,1.323442499997327
sub-12477358,95,rot,red,1,r,1,0.5212839999876451
sub-12477358,96,blau,red,0,r,1,0.4751914000080433
sub-12477358,97,gelb,yellow,1,g,1,0.8313013000006322
sub-12477358,98,blau,red,0,r,1,1.011241300002439
sub-12477358,99,gelb,yellow,1,g,1,1.0253803999949014
sub-12477358,100,blau,blue,1,b,1,2.134277199991629
sub-12477358,101,rot,yellow,0,g,1,1.6605725000117673
sub-12477358,102,rot,red,1,r,1,0.6150431999994908
sub-12477358,103,rot,blue,0,b,1,1.2484552999958396
sub-12477358,104,gelb,blue,0,b,1,0.5111700999987079
sub-12477358,105,blau,blue,1,b,1,0.487846099989838
sub-12477358,106,rot,red,1,r,1,1.4757380000082776
sub-12477358,107,gelb,red,0,r,1,1.869532499986235
sub-12477358,108,blau,yellow,0,g,1,1.7068097000010312
sub-12477358,109,blau,blue,1,b,1,1.3057281999936097
sub-12477358,110,gelb,blue,0,b,1,0.4705435999931069
sub-12477358,111,rot,red,1,r,1,1.1598712999984857
sub-12477358,112,gelb,yellow,1,g,1,1.421685900000739
sub-12477358,113,rot,blue,0,b,1,3.117839600003208
sub-12477358,114,blau,red,0,r,1,2.03103139999439
sub-12477358,115,rot,red,1,r,1,1.188184700004058
sub-12477358,116,blau,yellow,0,g,1,6.009694700012915
sub-12477358,117,gelb,red,0,r,1,0.899758399988059
sub-12477358,118,blau,blue,1,b,1,1.9190460000099847
sub-12477358,119,rot,yellow,0,g,1,2.0994315999996616
sub-12477358,120,gelb,yellow,1,g,1,0.5850077000068268
sub-13326941,1,gelb,blue,0,b,1,0.7086537000141107
sub-13326941,2,blau,yellow,0,g,1,0.733638699981384
sub-13326941,3,rot,red,1,r,1,0.622763399995165
sub-13326941,4,gelb,yellow,1,g,1,0.621463000017684
sub-13326941,5,gelb,yellow,1,g,1,0.6395987000141758
sub-13326941,6,rot,red,1,r,1,0.5924285000073723
sub-13326941,7,blau,red,0,r,1,0.994122200005222
sub-13326941,8,blau,blue,1,b,1,0.6050705000234302
sub-13326941,9,blau,blue,1,b,1,0.6911005999718327
sub-13326941,10,rot,blue,0,b,1,0.5600774000049569
sub-13326941,11,gelb,red,0,r,1,0.7268667999887839
sub-13326941,12,rot,yellow,0,g,1,0.5766921000031289
sub-13326941,13,blau,blue,1,b,1,0.7649883999838494
sub-13326941,14,gelb,red,0,r,1,0.8106962000019848
sub-13326941,15,rot,red,1,r,1,0.5653526999813039
sub-13326941,16,blau,red,0,r,1,0.6391163999796845
sub-13326941,17,blau,blue,1,b,1,0.7047767000040039
sub-13326941,18,gelb,blue,0,b,1,0.6017618000041693
sub-13326941,19,rot,blue,0,b,1,0.6759204999834765
sub-13326941,20,gelb,yellow,1,g,1,0.6535539999895263
sub-13326941,21,gelb,yellow,1,g,1,0.618929600022966
sub-13326941,22,rot,yellow,0,g,1,0.6683671000064351
sub-13326941,23,rot,red,1,r,1,0.6759203000110574
sub-13326941,24,blau,yellow,0,g,1,0.8155408000166062
sub-13326941,25,blau,blue,1,b,1,0.7810547999979462
sub-13326941,26,rot,red,1,r,1,0.6493457999895327
sub-13326941,27,blau,blue,1,b,1,0.650593399972422
sub-13326941,28,blau,red,0,r,1,0.9420408999721984
sub-13326941,29,rot,yellow,0,g,1,0.5907706000143662
sub-13326941,30,gelb,blue,0,b,1,0.8453777999966405
sub-13326941,31,rot,blue,0,b,1,0.8063223999924958
sub-13326941,32,gelb,yellow,1,g,1,0.8439223000023048
sub-13326941,33,gelb,red,0,r,1,0.7652768000261858
sub-13326941,34,gelb,yellow,1,g,1,1.2098461000132374
sub-13326941,35,blau,yellow,0,g,1,0.9252883000008296
sub-13326941,36,rot,red,1,r,1,0.6349944999965373
sub-13326941,37,gelb,yellow,1,g,1,0.7254217999870889
sub-13326941,38,rot,red,1,r,1,0.874504400009755
sub-13326941,39,blau,blue,1,b,1,0.7031962999899406
sub-13326941,40,gelb,yellow,1,g,1,0.737120000005234
sub-13326941,41,gelb,red,0,r,1,0.9301907000190112
sub-13326941,42,blau,yellow,0,g,1,1.028389499988407
sub-13326941,43,rot,yellow,0,g,1,0.8255284000188112
sub-13326941,44,rot,blue,0,b,1,0.6341031000192743
sub-13326941,45,rot,red,1,r,1,0.6715223000210244
sub-13326941,46,blau,blue,1,b,1,0.7804846999933943
sub-13326941,47,gelb,blue,0,b,1,0.7589085999934468
sub-13326941,48,blau,red,0,r,1,0.7645383000199217
sub-13326941,49,gelb,yellow,1,g,1,0.9597676999983378
sub-13326941,50,blau,blue,1,b,1,0.7356910999806132
sub-13326941,51,gelb,red,0,r,1,1.026785900001414
sub-13326941,52,gelb,yellow,1,g,1,0.9043349999992644
sub-13326941,53,rot,red,1,r,1,0.6502324999892153
sub-13326941,54,gelb,blue,0,b,1,0.750899800012121
sub-13326941,55,blau,blue,1,b,1,0.6234828000015114
sub-13326941,56,rot,blue,0,b,1,0.6118686999834608
sub-13326941,57,blau,red,0,r,1,0.8074915999895893
sub-13326941,58,rot,red,1,r,1,0.5942206000036094
sub-13326941,59,blau,yellow,0,g,1,0.7453020999964792
sub-13326941,60,rot,yellow,0,g,1,0.6075312999892049
sub-13326941,61,rot,red,1,r,1,0.6625324999913573
sub-13326941,62,gelb,red,0,r,1,0.8084211999957915
sub-13326941,63,gelb,yellow,1,g,1,0.703506899997592
sub-13326941,64,blau,blue,1,b,1,0.6882405999931507
sub-13326941,65,rot,blue,0,b,1,0.9206128000223543
sub-13326941,66,rot,red,1,r,1,0.6386392000131309
sub-13326941,67,gelb,yellow,1,g,1,0.7317089999851305
sub-13326941,68,gelb,blue,0,b,1,0.6093887000170071
sub-13326941,69,blau,red,0,r,1,0.6052396000013687
sub-13326941,70,rot,yellow,0,g,1,0.680184900003951
sub-13326941,71,blau,blue,1,b,1,0.6088297000096645
sub-13326941,72,blau,yellow,0,g,1,0.6632606000057422
sub-13326941,73,gelb,yellow,1,g,1,0.6688293000042904
sub-13326941,74,blau,yellow,0,g,1,0.5280004999949597
sub-13326941,75,blau,blue,1,b,1,0.5660980999819003
sub-13326941,76,rot,red,1,r,1,0.561858500004746
sub-13326941,77,rot,yellow,0,g,1,0.9359282999939752
sub-13326941,78,blau,red,0,r,1,1.1276997000095434
sub-13326941,79,rot,blue,0,b,1,0.7564192999852821
sub-13326941,80,gelb,yellow,1,g,1,0.692557600006694
sub-13326941,81,gelb,blue,0,b,1,0.633980699989479
sub-13326941,82,gelb,red,0,r,1,0.6628759999875911
sub-13326941,83,blau,blue,1,b,1,0.5766121000051498
sub-13326941,84,rot,red,1,r,1,0.6760048999858554
sub-13326941,85,gelb,yellow,1,g,1,0.46413129998836666
sub-13326941,86,gelb,red,0,r,1,0.7891680999891832
sub-13326941,87,rot,red,1,r,1,0.5409489000157919
sub-13326941,88,gelb,yellow,1,g,1,0.7433137000189163
sub-13326941,89,rot,yellow,0,g,1,1.104668700019829
sub-13326941,90,rot,blue,0,b,1,0.7509006999898702
sub-13326941,91,blau,blue,1,b,1,0.672129299986409
sub-13326941,92,rot,red,1,r,1,0.6019571000069845
sub-13326941,93,blau,yellow,0,g,1,0.7863166999886744
sub-13326941,94,blau,blue,1,b,1,0.6575161000073422
sub-13326941,95,blau,red,0,r,1,0.7037087999924552
sub-13326941,96,gelb,blue,0,b,1,0.8595831000129692
sub-13326941,97,blau,blue,1,b,1,0.6039912999840453
sub-13326941,98,gelb,blue,0,b,1,0.6696919000241905
sub-13326941,99,gelb,yellow,1,g,1,0.45774209999945015
sub-13326941,100,blau,red,0,r,1,0.5041322000033688
sub-13326941,101,rot,red,1,r,1,0.6002739999967162
sub-13326941,102,rot,yellow,0,g,1,0.5909933999937493
sub-13326941,103,rot,blue,0,b,1,0.7433755000238307
sub-13326941,104,rot,red,1,r,1,0.48416950000682846
sub-13326941,105,blau,blue,1,b,1,0.6136095999972895
sub-13326941,106,gelb,red,0,r,1,0.949844499991741
sub-13326941,107,blau,yellow,0,g,1,0.4499729999806732
sub-13326941,108,gelb,yellow,1,g,1,0.5019974999886472
sub-13326941,109,blau,blue,1,b,1,0.5266667999967467
sub-13326941,110,gelb,red,0,r,1,0.7767153000168037
sub-13326941,111,gelb,yellow,1,g,1,0.7441425000142772
sub-13326941,112,gelb,yellow,1,g,1,0.696691599994665
sub-13326941,113,gelb,blue,0,b,1,0.7385472000169102
sub-13326941,114,rot,yellow,0,g,1,0.7897850000008475
sub-13326941,115,blau,red,0,r,1,0.8630856999952812
sub-13326941,116,blau,yellow,0,g,1,0.7795744000177365
sub-13326941,117,rot,red,1,r,1,0.7364214000117499
sub-13326941,118,rot,red,1,r,1,0.5793130999954883
sub-13326941,119,rot,blue,0,b,1,0.4672093999979552
sub-13326941,120,blau,blue,1,b,1,0.5927525000006426
sub-13366559,1,rot,red,1,r,1,0.5075947999999926
sub-13366559,2,blau,blue,1,b,1,0.3932331999999974
sub-13366559,3,rot,blue,0,b,1,0.7677631999999903
sub-13366559,4,blau,yellow,0,g,1,0.6727828999999588
sub-13366559,5,rot,yellow,0,g,1,0.3320825000000127
sub-13366559,6,rot,red,1,r,1,0.46317300000004025
sub-13366559,7,gelb,yellow,1,g,1,0.46239499999995815
sub-13366559,8,blau,red,0,b,0,0.3452753999999913
sub-13366559,9,gelb,blue,0,b,1,0.6551393000000303
sub-13366559,10,gelb,yellow,1,g,1,0.5875026999999591
sub-13366559,11,blau,blue,1,r,0,0.3855654999999842
sub-13366559,12,gelb,red,0,r,1,0.5300902999999835
sub-13366559,13,blau,red,0,r,1,0.526840400000026
sub-13366559,14,blau,blue,1,b,1,0.4194936000000098
sub-13366559,15,blau,blue,1,b,1,0.39042219999998906
sub-13366559,16,blau,yellow,0,g,1,0.3086145000000329
sub-13366559,17,rot,blue,0,b,1,0.36931789999999853
sub-13366559,18,rot,red,1,r,1,0.5511382000000253
sub-13366559,19,gelb,yellow,1,g,1,0.3852244999999926
sub-13366559,20,rot,yellow,0,g,1,0.6097247999999809
sub-13366559,21,gelb,red,0,r,1,0.7820140000000038
sub-13366559,22,gelb,blue,0,b,1,0.45092419999997446
sub-13366559,23,gelb,yellow,1,g,1,1.4451106999999863
sub-13366559,24,rot,red,1,r,1,0.5217215000000124
sub-13366559,25,rot,yellow,0,g,1,0.337620300000026
sub-13366559,26,blau,blue,1,b,1,0.4424743999999805
sub-13366559,27,gelb,yellow,1,g,1,0.5718153999999913
sub-13366559,28,gelb,red,0,r,1,0.5751463000000285
sub-13366559,29,blau,blue,1,b,1,0.42139260000004697
sub-13366559,30,gelb,blue,0,b,1,0.6031727999999816
sub-13366559,31,rot,red,1,r,1,0.5097649000000501
sub-13366559,32,blau,yellow,0,g,1,0.3613806999999838
sub-13366559,33,gelb,yellow,1,g,1,0.34909290000001647
sub-13366559,34,rot,red,1,b,0,0.3402164999999968
sub-13366559,35,blau,red,0,b,0,0.4950058000000013
sub-13366559,36,rot,blue,0,b,1,0.4233907999999929
sub-13366559,37,blau,yellow,0,g,1,0.6388252000000421
sub-13366559,38,gelb,blue,0,b,1,0.7366451999999981
sub-13366559,39,rot,blue,0,b,1,0.4442816999999763
sub-13366559,40,gelb,yellow,1,g,1,0.3306888999999842
sub-13366559,41,rot,red,1,r,1,0.30749470000000656
sub-13366559,42,gelb,red,0,r,1,0.3997615999999766
sub-13366559,43,gelb,yellow,1,g,1,0.28410650000000714
sub-13366559,44,rot,yellow,0,r,0,0.3964474999999652
sub-13366559,45,blau,blue,1,b,1,0.4917694000000097
sub-13366559,46,rot,red,1,r,1,0.7283406999999897
sub-13366559,47,blau,red,0,r,1,0.6431329999999775
sub-13366559,48,blau,blue,1,b,1,0.4276207999999997
sub-13366559,49,gelb,red,0,r,1,0.6213065000000029
sub-13366559,50,blau,red,0,r,1,0.3554675999999972
sub-13366559,51,gelb,yellow,1,g,1,0.493043699999987
sub-13366559,52,gelb,yellow,1,g,1,0.48823199999998224
sub-13366559,53,blau,blue,1,b,1,0.4762429000000452
sub-13366559,54,blau,yellow,0,g,1,0.5583116000000246
sub-13366559,55,rot,red,1,r,1,0.6007750999999644
sub-13366559,56,rot,yellow,0,g,1,0.6159485000000018
sub-13366559,57,rot,red,1,r,1,0.850333599999999
sub-13366559,58,gelb,blue,0,b,1,0.4371022999999923
sub-13366559,59,rot,blue,0,b,1,0.3387263000000189
sub-13366559,60,blau,blue,1,b,1,0.4214002000000505
sub-13366559,61,rot,blue,0,b,1,0.423873599999979
sub-13366559,62,gelb,red,0,r,1,0.6087862999999629
sub-13366559,63,rot,red,1,r,1,0.387441200000012
sub-13366559,64,rot,red,1,r,1,0.3801950000000147
sub-13366559,65,blau,red,0,r,1,0.4011376999999925
sub-13366559,66,rot,yellow,0,g,1,0.3507974999999988
sub-13366559,67,blau,yellow,0,g,1,0.3818140000000199
sub-13366559,68,gelb,yellow,1,g,1,0.4126234999999952
sub-13366559,69,blau,blue,1,b,1,0.3866299000000026
sub-13366559,70,gelb,blue,0,b,1,0.3051351000000295
sub-13366559,71,gelb,yellow,1,g,1,0.5212556999999833
sub-13366559,72,blau,blue,1,b,1,0.4810941000000639
sub-13366559,73,blau,red,0,r,1,0.5259427000000869
sub-13366559,74,gelb,yellow,1,g,1,0.5391649999999117
sub-13366559,75,rot,blue,0,b,1,0.5064375000000609
sub-13366559,76,rot,red,1,r,1,0.3676578999999265
sub-13366559,77,gelb,red,0,r,1,0.4412909000000127
sub-13366559,78,gelb,blue,0,b,1,0.419488900000033
sub-13366559,79,blau,yellow,0,g,1,0.48237810000000536
sub-13366559,80,gelb,yellow,1,g,1,0.4634199999999282
sub-13366559,81,rot,red,1,r,1,0.4756703000000471
sub-13366559,82,rot,yellow,0,g,1,0.6692978999999468
sub-13366559,83,blau,blue,1,b,1,0.3727023999999801
sub-13366559,84,blau,blue,1,b,1,0.4687096999999767
sub-13366559,85,rot,red,1,g,0,0.609375200000045
sub-13366559,86,blau,red,0,r,1,0.4690113999999994
sub-13366559,87,rot,yellow,0,g,1,0.5015924000000496
sub-13366559,88,gelb,yellow,1,r,0,0.4631724000000758
sub-13366559,89,rot,blue,0,b,1,0.6615521999999601
sub-13366559,90,blau,yellow,0,g,1,0.575823000000014
sub-13366559,91,blau,blue,1,b,1,0.4829614999999876
sub-13366559,92,rot,red,1,r,1,0.456997900000033
sub-13366559,93,gelb,red,0,b,0,0.3307113000000754
sub-13366559,94,gelb,blue,0,b,1,0.4816471999999976
sub-13366559,95,blau,blue,1,b,1,0.4408250999999837
sub-13366559,96,gelb,yellow,1,g,1,0.6745007999999189
sub-13366559,97,blau,yellow,0,g,1,0.6595115999999734
sub-13366559,98,blau,blue,1,b,1,0.4535256000000345
sub-13366559,99,rot,red,1,r,1,0.50884080000003
sub-13366559,100,gelb,yellow,1,g,1,0.5141574000000446
sub-13366559,101,gelb,blue,0,b,1,0.8310244000000466
sub-13366559,102,rot,red,1,r,1,0.4500752000000148
sub-13366559,103,blau,red,0,r,1,0.4903719999999794
sub-13366559,104,gelb,red,0,r,1,0.4926636000000144
sub-13366559,105,blau,blue,1,b,1,0.43667329999993854
sub-13366559,106,gelb,yellow,1,g,1,0.49330669999994825
sub-13366559,107,rot,blue,0,r,0,0.4763047999999799
sub-13366559,108,rot,yellow,0,g,1,0.5099483999999848
sub-13366559,109,blau,blue,1,b,1,0.4341159000000516
sub-13366559,110,blau,yellow,0,g,1,0.7390834999999925
sub-13366559,111,rot,red,1,r,1,0.38159040000005007
sub-13366559,112,gelb,blue,0,b,1,0.4176957999999331
sub-13366559,113,rot,yellow,0,g,1,0.4666441000000532
sub-13366559,114,blau,red,0,r,1,0.34711749999996755
sub-13366559,115,rot,blue,0,b,1,0.25830950000010944
sub-13366559,116,gelb,yellow,1,g,1,0.44589059999998426
sub-13366559,117,gelb,red,0,r,1,0.32507969999994657
sub-13366559,118,gelb,yellow,1,g,1,0.509098700000095
sub-13366559,119,blau,blue,1,b,1,0.35330210000006446
sub-13366559,120,rot,red,1,r,1,0.5160739000000376
sub-13544157,1,blau,blue,1,b,1,3.166391218022909
sub-13544157,2,gelb,blue,0,g,0,7.002674841001863
sub-13544157,3,gelb,red,0,r,1,6.47523707797518
sub-13544157,4,blau,blue,1,b,1,5.300575280998601
sub-13544157,5,rot,blue,0,b,1,2.962866201007273
sub-13544157,6,gelb,yellow,1,g,1,5.858041050989414
sub-13544157,7,rot,red,1,r,1,1.9289133400016
sub-13544157,8,gelb,yellow,1,g,1,2.933813276002184
sub-13544157,9,rot,yellow,0,r,0,1.1653399549832102
sub-13544157,10,rot,red,1,r,1,2.662646443000994
sub-13544157,11,blau,red,0,r,1,2.002744708006503
sub-13544157,12,blau,yellow,0,g,1,1.648482327000238
sub-13544157,13,gelb,red,0,r,1,2.7767499670153484
sub-13544157,14,rot,red,1,r,1,1.5279295300133526
sub-13544157,15,rot,blue,0,b,1,1.264615666004829
sub-13544157,16,gelb,blue,0,g,0,1.421726182976272
sub-13544157,17,blau,red,0,r,1,3.631360052007949
sub-13544157,18,blau,blue,1,b,1,1.6441794970014598
sub-13544157,19,blau,blue,1,b,1,4.309186605998548
sub-13544157,20,blau,yellow,0,g,1,2.850366711994866
sub-13544157,21,rot,red,1,r,1,3.288502940995386
sub-13544157,22,rot,yellow,0,g,1,2.0622646209958475
sub-13544157,23,gelb,yellow,1,g,1,2.301123661018209
sub-13544157,24,gelb,yellow,1,g,1,1.5714839760039467
sub-13544157,25,gelb,blue,0,b,1,1.492137997993268
sub-13544157,26,blau,yellow,0,g,1,2.682815476990072
sub-13544157,27,blau,blue,1,b,1,1.483330927992938
sub-13544157,28,rot,red,1,r,1,0.8726823249890003
sub-13544157,29,rot,yellow,0,g,1,2.593069346010452
sub-13544157,30,rot,red,1,r,1,1.1657096350099891
sub-13544157,31,gelb,yellow,1,g,1,1.4219982300128322
sub-13544157,32,blau,red,0,r,1,2.594975419982802
sub-13544157,33,blau,blue,1,b,1,1.5466778069967404
sub-13544157,34,gelb,red,0,r,1,2.8116830259968992
sub-13544157,35,rot,blue,0,b,1,3.5643132270197384
sub-13544157,36,gelb,yellow,1,g,1,0.9505825759842992
sub-13544157,37,rot,red,1,r,1,0.9164637080102692
sub-13544157,38,rot,blue,0,b,1,1.0434707780077588
sub-13544157,39,gelb,red,0,r,1,1.9232544160040561
sub-13544157,40,blau,red,0,r,1,0.8856620279839262
sub-13544157,41,gelb,yellow,1,g,1,1.137945463997312
sub-13544157,42,gelb,yellow,1,g,1,0.9572484150121454
sub-13544157,43,blau,blue,1,b,1,0.9141829950094688
sub-13544157,44,gelb,blue,0,b,1,1.3813710829999764
sub-13544157,45,rot,red,1,r,1,0.9100955160101876
sub-13544157,46,rot,yellow,0,g,1,1.4988269849854987
sub-13544157,47,blau,blue,1,b,1,0.7228032450075261
sub-13544157,48,blau,yellow,0,g,1,1.6280854319920763
sub-13544157,49,rot,red,1,r,1,0.7641595400054939
sub-13544157,50,gelb,blue,0,b,1,1.449984411010519
sub-13544157,51,blau,red,0,r,1,1.453760517993942
sub-13544157,52,gelb,yellow,1,g,1,1.4499423879897222
sub-13544157,53,gelb,yellow,1,g,1,1.4180999149975833
sub-13544157,54,blau,blue,1,b,1,1.0221045200014487
sub-13544157,55,rot,blue,0,b,1,1.1174911629932467
sub-13544157,56,gelb,red,0,r,1,1.962216957006604
sub-13544157,57,blau,blue,1,b,1,1.0902274410182144
sub-13544157,58,blau,yellow,0,g,1,1.0010427749948576
sub-13544157,59,rot,yellow,0,g,1,0.9334526869934052
sub-13544157,60,rot,red,1,r,1,0.8394697749754414
sub-13544157,61,rot,yellow,0,g,1,1.9869032710266763
sub-13544157,62,rot,red,1,r,1,0.793125095020514
sub-13544157,63,gelb,red,0,r,1,1.1626542519952636
sub-13544157,64,blau,blue,1,b,1,1.2694790499808732
sub-13544157,65,gelb,yellow,1,g,1,1.698585225007264
sub-13544157,66,blau,red,0,r,1,0.84862190898275
sub-13544157,67,rot,red,1,r,1,0.8911519419925753
sub-13544157,68,blau,blue,1,b,1,1.3219508600013796
sub-13544157,69,rot,blue,0,b,1,0.7951699210098013
sub-13544157,70,gelb,yellow,1,g,1,1.4625486810109578
sub-13544157,71,blau,yellow,0,g,1,1.1755049949861132
sub-13544157,72,gelb,blue,0,b,1,0.9017930830013938
sub-13544157,73,blau,blue,1,b,1,0.5899867560074199
sub-13544157,74,rot,red,1,r,1,0.7662963300244883
sub-13544157,75,blau,red,0,r,1,0.8030779359978624
sub-13544157,76,gelb,yellow,1,g,1,0.7919773500179872
sub-13544157,77,gelb,blue,0,b,1,1.040172077016905
sub-13544157,78,blau,blue,1,b,1,0.9280608329863752
sub-13544157,79,rot,red,1,r,1,0.6202969259757083
sub-13544157,80,rot,yellow,0,g,1,1.5098945820063818
sub-13544157,81,gelb,yellow,1,b,0,0.8644950739981141
sub-13544157,82,rot,blue,0,b,1,1.330183248006506
sub-13544157,83,gelb,red,0,r,1,1.6020663499948569
sub-13544157,84,blau,yellow,0,g,1,1.305927117995452
sub-13544157,85,rot,blue,0,b,1,1.0006826989992987
sub-13544157,86,blau,yellow,0,g,1,1.176728765014559
sub-13544157,87,rot,yellow,0,g,1,1.514074566017371
sub-13544157,88,gelb,yellow,1,g,1,1.057791859988356
sub-13544157,89,gelb,yellow,1,g,1,1.3008515969850123
sub-13544157,90,rot,red,1,r,1,1.019437790993834
sub-13544157,91,gelb,blue,0,b,1,1.9069921009941029
sub-13544157,92,blau,blue,1,b,1,0.9155351189838256
sub-13544157,93,gelb,red,0,r,1,1.7644896419951692
sub-13544157,94,rot,red,1,r,1,1.0566194929997437
sub-13544157,95,blau,blue,1,b,1,1.7565370529773645
sub-13544157,96,blau,red,0,r,1,0.9069746139866766
sub-13544157,97,gelb,blue,0,b,1,1.3490165160037575
sub-13544157,98,blau,blue,1,b,1,0.7146773650019895
sub-13544157,99,blau,blue,1,b,1,0.8033814419759437
sub-13544157,100,rot,yellow,0,g,1,1.1974360060121398
sub-13544157,101,blau,yellow,0,g,1,0.7312872880138457
sub-13544157,102,rot,red,1,r,1,0.7974787839921191
sub-13544157,103,rot,blue,0,b,1,1.2660584340046626
sub-13544157,104,gelb,yellow,1,g,1,1.7536671739944725
sub-13544157,105,blau,red,0,r,1,1.190173381997738
sub-13544157,106,rot,red,1,r,1,0.8619107490230817
sub-13544157,107,gelb,red,0,r,1,0.8140145920042414
sub-13544157,108,gelb,yellow,1,g,1,2.221056670008693
sub-13544157,109,blau,blue,1,b,1,0.8975080800009891
sub-13544157,110,rot,red,1,r,1,0.8646685210114811
sub-13544157,111,rot,red,1,r,1,0.8332276830042247
sub-13544157,112,gelb,yellow,1,g,1,1.312246435001725
sub-13544157,113,gelb,yellow,1,g,1,0.9511058990028688
sub-13544157,114,rot,yellow,0,g,1,1.693575368000893
sub-13544157,115,gelb,red,0,r,1,2.1327188500144985
sub-13544157,116,gelb,blue,0,b,1,1.038444983016234
sub-13544157,117,blau,yellow,0,g,1,0.9588255620037672
sub-13544157,118,blau,red,0,r,1,0.6879393930139486
sub-13544157,119,blau,blue,1,b,1,1.4640640540164895
sub-13544157,120,rot,blue,0,b,1,1.697198234993266
sub-13544407,1,gelb,blue,0,b,1,1.943749400088564
sub-13544407,2,rot,red,1,r,1,1.235055800061673
sub-13544407,3,gelb,red,0,r,1,0.9014349000062792
sub-13544407,4,blau,yellow,0,g,1,0.6107417000457644
sub-13544407,5,rot,yellow,0,g,1,0.7305783999618143
sub-13544407,6,rot,red,1,r,1,0.6796417001169175
sub-13544407,7,blau,red,0,r,1,0.7872615000233054
sub-13544407,8,gelb,yellow,1,g,1,0.6335100999567658
sub-13544407,9,blau,blue,1,b,1,0.4142865999601781
sub-13544407,10,rot,blue,0,b,1,0.6545996000058949
sub-13544407,11,gelb,yellow,1,g,1,0.8159245999995619
sub-13544407,12,blau,blue,1,b,1,0.5053425999358296
sub-13544407,13,gelb,blue,0,b,1,0.6180479000322521
sub-13544407,14,rot,blue,0,b,1,0.4668374999891967
sub-13544407,15,blau,blue,1,b,1,0.42931820009835053
sub-13544407,16,gelb,yellow,1,g,1,0.5379882999695837
sub-13544407,17,rot,yellow,0,g,1,0.3702922000084072
sub-13544407,18,blau,blue,1,b,1,0.6351559001486748
sub-13544407,19,gelb,red,0,r,1,0.6205402999185026
sub-13544407,20,rot,red,1,r,1,0.5010893999133259
sub-13544407,21,blau,red,0,r,1,0.3713342999108136
sub-13544407,22,gelb,yellow,1,g,1,0.6454922000411898
sub-13544407,23,rot,red,1,r,1,0.5963227001484483
sub-13544407,24,blau,yellow,0,g,1,0.8521858002059162
sub-13544407,25,blau,red,0,r,1,0.6948497998528183
sub-13544407,26,rot,blue,0,b,1,0.9948580998461694
sub-13544407,27,gelb,red,0,r,1,0.8706167999189347
sub-13544407,28,rot,red,1,r,1,0.6445732999127358
sub-13544407,29,gelb,blue,0,b,1,0.6315010001417249
sub-13544407,30,blau,yellow,0,g,1,0.6708402000367641
sub-13544407,31,rot,yellow,0,g,1,0.3929401999339461
sub-13544407,32,gelb,yellow,1,g,1,0.4875268000178039
sub-13544407,33,blau,blue,1,b,1,0.5220931000076234
sub-13544407,34,gelb,yellow,1,g,1,0.3972809999249875
sub-13544407,35,rot,red,1,r,1,0.4502153000794351
sub-13544407,36,blau,blue,1,b,1,0.5027981998864561
sub-13544407,37,rot,yellow,0,g,1,0.8220623999368399
sub-13544407,38,gelb,blue,0,b,1,0.6689301000442356
sub-13544407,39,rot,red,1,r,1,0.8135223998688161
sub-13544407,40,blau,blue,1,b,1,0.5177778000943363
sub-13544407,41,rot,red,1,r,1,0.6161209000274539
sub-13544407,42,gelb,yellow,1,g,1,0.6510318999644369
sub-13544407,43,gelb,red,0,r,1,0.922450999962166
sub-13544407,44,gelb,yellow,1,g,1,0.7280398001894355
sub-13544407,45,blau,red,0,r,1,1.653251799987629
sub-13544407,46,blau,yellow,0,g,1,0.7570874998345971
sub-13544407,47,rot,blue,0,b,1,0.7241582998540252
sub-13544407,48,blau,blue,1,b,1,0.5381930000148714
sub-13544407,49,gelb,yellow,1,g,1,0.4567934998776764
sub-13544407,50,blau,yellow,0,g,1,0.5238232999108732
sub-13544407,51,gelb,yellow,1,g,1,0.5317358998581767
sub-13544407,52,blau,red,0,b,0,0.5123181999661028
sub-13544407,53,gelb,red,0,b,0,1.07416329998523
sub-13544407,54,rot,yellow,0,g,1,0.7527956000994891
sub-13544407,55,rot,blue,0,b,1,0.8387176999822259
sub-13544407,56,rot,red,1,r,1,0.8538516999688
sub-13544407,57,rot,red,1,r,1,0.6912280002143234
sub-13544407,58,blau,blue,1,b,1,0.6140144998207688
sub-13544407,59,blau,blue,1,b,1,0.4208768999669701
sub-13544407,60,gelb,blue,0,b,1,0.6023784999269992
sub-13544407,61,blau,red,0,r,1,1.1010829999577254
sub-13544407,62,gelb,yellow,1,g,1,0.5327331000007689
sub-13544407,63,rot,red,1,r,1,0.9719638999085872
sub-13544407,64,rot,blue,0,b,1,0.5115494001656771
sub-13544407,65,blau,blue,1,b,1,0.5946861000265926
sub-13544407,66,gelb,red,0,r,1,0.6215166000183672
sub-13544407,67,gelb,yellow,1,g,1,0.44186790008097887
sub-13544407,68,rot,red,1,r,1,0.9334205999039114
sub-13544407,69,rot,yellow,0,g,1,1.0101229001302272
sub-13544407,70,blau,yellow,0,g,1,0.5599365001544356
sub-13544407,71,gelb,blue,0,b,1,0.5152318999171257
sub-13544407,72,blau,blue,1,b,1,0.5250820000655949
sub-13544407,73,rot,red,1,r,1,0.6850344999693334
sub-13544407,74,blau,blue,1,b,1,0.5774937998503447
sub-13544407,75,gelb,blue,0,b,1,0.4591246999334544
sub-13544407,76,rot,blue,0,b,1,0.6985679999925196
sub-13544407,77,gelb,red,0,r,1,1.410136500140652
sub-13544407,78,rot,yellow,0,g,1,1.4380425999406723
sub-13544407,79,rot,red,1,r,1,0.8032114999368787
sub-13544407,80,blau,red,0,r,1,1.0754994000308216
sub-13544407,81,gelb,yellow,1,g,1,0.5148744999896735
sub-13544407,82,blau,blue,1,b,1,0.33909420017153025
sub-13544407,83,gelb,yellow,1,g,1,1.1401231000199914
sub-13544407,84,blau,yellow,0,g,1,0.4873196000698954
sub-13544407,85,rot,red,1,r,1,0.58845020015724
sub-13544407,86,gelb,yellow,1,g,1,0.5395456999540329
sub-13544407,87,blau,yellow,0,g,1,0.5698291999287903
sub-13544407,88,rot,blue,0,b,1,0.9993249999824912
sub-13544407,89,blau,blue,1,b,1,0.5336088000331074
sub-13544407,90,rot,red,1,r,1,0.6072706999257207
sub-13544407,91,blau,blue,1,b,1,0.8943894000258297
sub-13544407,92,gelb,red,0,r,1,0.8694164999760687
sub-13544407,93,rot,yellow,0,g,1,0.5557025999296457
sub-13544407,94,gelb,blue,0,b,1,0.5222567999735475
sub-13544407,95,gelb,yellow,1,g,1,1.8583166000898927
sub-13544407,96,blau,red,0,r,1,1.2298364001326263
sub-13544407,97,blau,blue,1,b,1,1.2718751998618243
sub-13544407,98,blau,red,0,r,1,1.4576185999903828
sub-13544407,99,rot,yellow,0,g,1,2.2180471001192927
sub-13544407,100,rot,blue,0,b,1,0.4728151001036167
sub-13544407,101,blau,blue,1,b,1,0.4137322001624853
sub-13544407,102,rot,red,1,r,1,0.803962399950251
sub-13544407,103,gelb,yellow,1,g,1,0.9350260000210256
sub-13544407,104,gelb,red,0,r,1,1.1689408998936417
sub-13544407,105,gelb,yellow,1,g,1,0.5406605000607669
sub-13544407,106,blau,yellow,0,g,1,0.9610508000478148
sub-13544407,107,rot,red,1,r,1,0.8266590998973697
sub-13544407,108,gelb,blue,0,b,1,1.3687115998473018
sub-13544407,109,blau,blue,1,b,1,0.3278338999953121
sub-13544407,110,gelb,red,0,r,1,0.7856598000507802
sub-13544407,111,rot,red,1,r,1,0.7247918001376092
sub-13544407,112,rot,blue,0,b,1,0.3701418999116868
sub-13544407,113,blau,blue,1,b,1,0.4523243999574333
sub-13544407,114,gelb,yellow,1,g,1,0.687027300009504
sub-13544407,115,blau,red,0,r,1,0.89289760007523
sub-13544407,116,rot,yellow,0,g,1,0.5040504999924451
sub-13544407,117,blau,yellow,0,g,1,0.4348653999622911
sub-13544407,118,gelb,blue,0,b,1,0.4618929999414832
sub-13544407,119,gelb,yellow,1,g,1,0.6046458999626338
sub-13544407,120,rot,red,1,r,1,0.6960008000023663
sub-13662910,1,gelb,yellow,1,g,1,0.8438808
sub-13662910,2,gelb,red,0,r,1,0.6322673
sub-13662910,3,blau,blue,1,b,1,0.4119221
sub-13662910,4,rot,yellow,0,g,1,0.4653843
sub-13662910,5,gelb,yellow,1,g,1,0.5152451
sub-13662910,6,blau,red,0,r,1,0.4141343
sub-13662910,7,gelb,blue,0,b,1,0.3673764
sub-13662910,8,rot,red,1,r,1,0.6299397
sub-13662910,9,blau,yellow,0,g,1,0.4912511
sub-13662910,10,rot,red,1,r,1,0.3998026
sub-13662910,11,blau,blue,1,b,1,0.4938805
sub-13662910,12,rot,blue,0,b,1,0.544008
sub-13662910,13,gelb,blue,0,b,1,0.4621598
sub-13662910,14,blau,blue,1,b,1,0.4007486
sub-13662910,15,rot,blue,0,b,1,0.451827
sub-13662910,16,rot,red,1,r,1,0.5453545
sub-13662910,17,blau,blue,1,b,1,0.4791487
sub-13662910,18,blau,red,0,r,1,0.5746387
sub-13662910,19,gelb,yellow,1,g,1,0.5325861
sub-13662910,20,gelb,red,0,r,1,0.4042922
sub-13662910,21,gelb,yellow,1,g,1,0.2977672
sub-13662910,22,rot,red,1,r,1,0.5192502
sub-13662910,23,rot,yellow,0,g,1,0.4178215
sub-13662910,24,blau,yellow,0,g,1,0.4636595
sub-13662910,25,gelb,blue,0,b,1,0.4804692
sub-13662910,26,gelb,yellow,1,g,1,0.5425076
sub-13662910,27,gelb,red,0,r,1,0.6180806
sub-13662910,28,blau,blue,1,b,1,0.5516847
sub-13662910,29,rot,red,1,r,1,0.5482482
sub-13662910,30,gelb,yellow,1,g,1,0.5011995
sub-13662910,31,rot,yellow,0,g,1,1.0285765
sub-13662910,32,blau,yellow,0,g,1,0.5125777
sub-13662910,33,blau,blue,1,b,1,0.5487654
sub-13662910,34,rot,blue,0,b,1,0.5611924
sub-13662910,35,rot,red,1,r,1,0.3538781
sub-13662910,36,blau,red,0,r,1,0.5199704
sub-13662910,37,gelb,yellow,1,g,1,0.3604223
sub-13662910,38,rot,red,1,r,1,0.5246837
sub-13662910,39,gelb,blue,0,b,1,0.5689233
sub-13662910,40,blau,blue,1,b,1,0.3809295
sub-13662910,41,rot,blue,0,b,1,0.3444335
sub-13662910,42,blau,red,0,r,1,0.4352046
sub-13662910,43,gelb,red,0,r,1,0.5035688
sub-13662910,44,blau,blue,1,b,1,0.5146439
sub-13662910,45,blau,yellow,0,g,1,0.4815626
sub-13662910,46,rot,red,1,r,1,0.3487145
sub-13662910,47,gelb,yellow,1,g,1,0.6959053
sub-13662910,48,rot,yellow,0,g,1,0.8593839
sub-13662910,49,rot,red,1,r,1,0.5301228
sub-13662910,50,gelb,yellow,1,g,1,0.602184
sub-13662910,51,rot,blue,0,b,1,0.3384155
sub-13662910,52,blau,blue,1,b,1,0.4098285
sub-13662910,53,gelb,red,0,r,1,0.4614482
sub-13662910,54,blau,blue,1,b,1,0.502358
sub-13662910,55,gelb,blue,0,b,1,0.4206969
sub-13662910,56,rot,yellow,0,r,0,0.7004505
sub-13662910,57,gelb,yellow,1,g,1,0.7245453
sub-13662910,58,blau,red,0,r,1,0.6529363
sub-13662910,59,rot,red,1,r,1,0.4105591
sub-13662910,60,blau,yellow,0,g,1,0.563781
sub-13662910,61,blau,blue,1,b,1,0.5763619
sub-13662910,62,gelb,yellow,1,g,1,0.4340945
sub-13662910,63,rot,red,1,r,1,0.3918225
sub-13662910,64,rot,blue,0,b,1,0.8006684
sub-13662910,65,gelb,blue,0,b,1,0.894793
sub-13662910,66,gelb,red,0,g,0,0.7317287
sub-13662910,67,rot,yellow,0,g,1,0.5678568
sub-13662910,68,blau,blue,1,b,1,1.0236551
sub-13662910,69,blau,red,0,r,1,0.8722879
sub-13662910,70,gelb,yellow,1,g,1,0.8075221
sub-13662910,71,blau,yellow,0,g,1,0.4908207
sub-13662910,72,rot,red,1,r,1,0.6814506
sub-13662910,73,gelb,yellow,1,g,1,0.6386946
sub-13662910,74,gelb,blue,0,b,1,0.4263141
sub-13662910,75,blau,red,0,r,1,0.604585
sub-13662910,76,gelb,yellow,1,g,1,0.6577537
sub-13662910,77,blau,blue,1,b,1,1.1614897
sub-13662910,78,blau,yellow,0,g,1,0.6854191
sub-13662910,79,rot,yellow,0,r,0,0.668832
sub-13662910,80,rot,blue,0,b,1,0.7529308
sub-13662910,81,blau,blue,1,b,1,0.4898377
sub-13662910,82,gelb,red,0,r,1,0.7076343
sub-13662910,83,rot,red,1,r,1,0.5255757
sub-13662910,84,rot,red,1,r,1,0.4506624
sub-13662910,85,rot,red,1,r,1,0.4273167
sub-13662910,86,rot,blue,0,b,1,0.601007
sub-13662910,87,rot,red,1,r,1,0.6029325
sub-13662910,88,blau,yellow,0,g,1,1.0287223
sub-13662910,89,blau,red,0,r,1,0.7099779
sub-13662910,90,gelb,yellow,1,g,1,0.57071210000000006
sub-13662910,91,gelb,yellow,1,g,1,0.4513758
sub-13662910,92,blau,blue,1,b,1,0.4617826
sub-13662910,93,gelb,blue,0,b,1,1.452013
sub-13662910,94,rot,yellow,0,g,1,0.8508595
sub-13662910,95,gelb,red,0,r,1,0.3351893
sub-13662910,96,blau,blue,1,b,1,0.581824
sub-13662910,97,blau,blue,1,b,1,0.4542078
sub-13662910,98,gelb,yellow,1,g,1,0.8676
sub-13662910,99,rot,blue,0,b,1,0.7337413
sub-13662910,100,blau,yellow,0,g,1,0.597528
sub-13662910,101,rot,red,1,r,1,0.4543644
sub-13662910,102,blau,red,0,r,1,0.7343224
sub-13662910,103,gelb,yellow,1,g,1,0.848145
sub-13662910,104,rot,red,1,r,1,0.6480079
sub-13662910,105,gelb,blue,0,b,1,0.5152316
sub-13662910,106,gelb,red,0,g,0,0.4628729
sub-13662910,107,blau,blue,1,b,1,0.8796635
sub-13662910,108,rot,yellow,0,g,1,1.2001603
sub-13662910,109,blau,red,0,r,1,0.5368635
sub-13662910,110,rot,red,1,r,1,0.4979542
sub-13662910,111,gelb,blue,0,b,1,0.5420787
sub-13662910,112,gelb,red,0,r,1,0.6653991
sub-13662910,113,gelb,yellow,1,g,1,0.3850566
sub-13662910,114,rot,red,1,r,1,0.5236909
sub-13662910,115,blau,yellow,0,g,1,0.7397395
sub-13662910,116,rot,blue,0,b,1,0.4241469
sub-13662910,117,gelb,yellow,1,g,1,0.470102
sub-13662910,118,blau,blue,1,b,1,0.5856404
sub-13662910,119,blau,blue,1,b,1,0.4245815
sub-13662910,120,rot,yellow,0,g,1,0.6325345
sub-13771505,1,rot,red,1,r,1,1.121120791998692
sub-13771505,2,gelb,yellow,1,g,1,1.8821004170458764
sub-13771505,3,blau,yellow,0,g,1,1.3318651670124382
sub-13771505,4,blau,blue,1,b,1,0.747818291070871
sub-13771505,5,blau,red,0,r,1,0.5351405830588192
sub-13771505,6,gelb,yellow,1,g,1,0.86934187496081
sub-13771505,7,rot,yellow,0,g,1,1.385805334080942
sub-13771505,8,blau,blue,1,b,1,0.6788452079053968
sub-13771505,9,gelb,blue,0,b,1,0.448317667003721
sub-13771505,10,rot,blue,0,b,1,0.5767996669746935
sub-13771505,11,gelb,red,0,r,1,1.3292660840088502
sub-13771505,12,rot,red,1,r,1,0.5645140419946983
sub-13771505,13,gelb,yellow,1,g,1,0.9372980830958112
sub-13771505,14,blau,blue,1,b,1,0.545243417029269
sub-13771505,15,rot,red,1,r,1,0.5284327920526266
sub-13771505,16,rot,yellow,0,g,1,1.2503471249947324
sub-13771505,17,blau,red,0,r,1,1.20281199994497
sub-13771505,18,gelb,yellow,1,g,1,0.9673521250952036
sub-13771505,19,blau,yellow,0,g,1,0.8568290829425678
sub-13771505,20,rot,red,1,r,1,0.5976971669588238
sub-13771505,21,gelb,blue,0,b,1,0.6279132911004126
sub-13771505,22,rot,blue,0,b,1,0.601095916936174
sub-13771505,23,gelb,red,0,r,1,1.1663877500686797
sub-13771505,24,blau,blue,1,b,1,0.6011094999266788
sub-13771505,25,gelb,blue,0,b,1,1.6072201250353828
sub-13771505,26,rot,yellow,0,g,1,1.3613301670411602
sub-13771505,27,blau,yellow,0,g,1,0.39746054203715175
sub-13771505,28,blau,blue,1,b,1,1.2279047910124063
sub-13771505,29,blau,blue,1,b,1,0.5664415420033038
sub-13771505,30,blau,red,0,r,1,0.7201499580405653
sub-13771505,31,gelb,yellow,1,g,1,0.7614598339423537
sub-13771505,32,rot,blue,0,b,1,0.8761208750074729
sub-13771505,33,gelb,red,0,r,1,0.6596266250126064
sub-13771505,34,rot,red,1,r,1,0.6422077080933377
sub-13771505,35,rot,red,1,r,1,0.4189494169550017
sub-13771505,36,gelb,yellow,1,g,1,0.5549514580052346
sub-13771505,37,blau,red,0,r,1,1.0480472090421245
sub-13771505,38,blau,yellow,0,g,1,0.6144213340012357
sub-13771505,39,gelb,blue,0,b,1,0.578688875073567
sub-13771505,40,gelb,yellow,1,g,1,0.8141517080366611
sub-13771505,41,rot,red,1,r,1,0.533535624970682
sub-13771505,42,blau,blue,1,b,1,1.1990974580403415
sub-13771505,43,rot,blue,0,b,1,0.4043662500334904
sub-13771505,44,gelb,red,0,r,1,1.2590231669601053
sub-13771505,45,rot,red,1,r,1,0.366236082976684
sub-13771505,46,gelb,yellow,1,g,1,0.6835319169331342
sub-13771505,47,rot,yellow,0,g,1,1.9180347919464111
sub-13771505,48,blau,blue,1,b,1,0.4321795420255512
sub-13771505,49,gelb,red,0,r,1,0.588343832991086
sub-13771505,50,rot,yellow,0,g,1,0.734976000036113
sub-13771505,51,rot,blue,0,b,1,0.6317451669601724
sub-13771505,52,rot,red,1,r,1,1.5675562910037115
sub-13771505,53,blau,yellow,0,g,1,1.0572667920496317
sub-13771505,54,gelb,blue,0,b,1,0.6226612919708714
sub-13771505,55,gelb,yellow,1,r,0,0.6280380829703063
sub-13771505,56,rot,red,1,r,1,0.8082946669310331
sub-13771505,57,blau,blue,1,g,0,0.7250288330251351
sub-13771505,58,gelb,yellow,1,g,1,1.7839259159518406
sub-13771505,59,blau,blue,1,b,1,0.8022361249895766
sub-13771505,60,blau,red,0,r,1,0.5861513330601156
sub-13771505,61,rot,red,1,r,1,0.8149409169564024
sub-13771505,62,rot,red,1,r,1,0.6487122499383986
sub-13771505,63,gelb,yellow,1,g,1,1.3539884169586005
sub-13771505,64,blau,yellow,0,g,1,0.4225859169382602
sub-13771505,65,blau,red,0,r,1,1.2330055000493303
sub-13771505,66,blau,blue,1,b,1,0.9871714999899268
sub-13771505,67,gelb,yellow,1,g,1,1.9876098750391973
sub-13771505,68,rot,yellow,0,g,1,1.3309457080904394
sub-13771505,69,gelb,red,0,r,1,1.0327610420063138
sub-13771505,70,blau,blue,1,b,1,1.0512778329430148
sub-13771505,71,rot,blue,0,b,1,0.64530845801346
sub-13771505,72,gelb,blue,0,b,1,0.8870488340035081
sub-13771505,73,rot,blue,0,b,1,0.6603562079835683
sub-13771505,74,gelb,yellow,1,g,1,1.2628121660090983
sub-13771505,75,rot,red,1,r,1,0.8456573330331594
sub-13771505,76,blau,yellow,0,g,1,1.09158795804251
sub-13771505,77,blau,blue,1,b,1,1.0912995000835508
sub-13771505,78,rot,yellow,0,g,1,1.8360212920233607
sub-13771505,79,gelb,red,0,r,1,0.9490579590201378
sub-13771505,80,gelb,blue,0,b,1,1.461066292016767
sub-13771505,81,gelb,yellow,1,g,1,1.3501424579881132
sub-13771505,82,blau,blue,1,b,1,0.6526017090072855
sub-13771505,83,blau,red,0,r,1,0.7187188330572098
sub-13771505,84,rot,red,1,r,1,0.5435732499463484
sub-13771505,85,gelb,yellow,1,g,1,2.176931999973021
sub-13771505,86,gelb,blue,0,b,1,0.4410844170488417
sub-13771505,87,gelb,red,0,r,1,0.4164655419299379
sub-13771505,88,gelb,yellow,1,g,1,1.9783254590583963
sub-13771505,89,rot,red,1,r,1,0.5974902500165626
sub-13771505,90,blau,blue,1,b,1,0.5611758750164881
sub-13771505,91,blau,yellow,0,g,1,1.0441112500848249
sub-13771505,92,rot,yellow,0,g,1,0.4436067920178175
sub-13771505,93,rot,red,1,r,1,0.8063583329785615
sub-13771505,94,rot,blue,0,b,1,0.8971932500135154
sub-13771505,95,blau,red,0,r,1,1.8045496670529249
sub-13771505,96,blau,blue,1,b,1,1.611423374968581
sub-13771505,97,gelb,red,0,r,1,0.5163491249550134
sub-13771505,98,rot,blue,0,b,1,0.845746917068027
sub-13771505,99,blau,red,0,r,1,0.8672146250028163
sub-13771505,100,rot,red,1,r,1,0.6066405000165105
sub-13771505,101,blau,yellow,0,g,1,1.14574966696091
sub-13771505,102,gelb,blue,0,b,1,1.1471940410556272
sub-13771505,103,gelb,yellow,1,g,1,1.2542245420627296
sub-13771505,104,rot,red,1,r,1,0.8266642090165988
sub-13771505,105,rot,yellow,0,g,1,1.417761499993503
sub-13771505,106,blau,blue,1,b,1,1.122093667043373
sub-13771505,107,gelb,yellow,1,g,1,2.009404457989149
sub-13771505,108,blau,blue,1,b,1,0.6885749999200925
sub-13771505,109,blau,blue,1,b,1,0.6628407499520108
sub-13771505,110,gelb,blue,0,b,1,0.6652712499490008
sub-13771505,111,blau,red,0,r,1,0.9805654169758782
sub-13771505,112,gelb,red,0,r,1,0.390094832982868
sub-13771505,113,rot,red,1,r,1,0.530483708018437
sub-13771505,114,rot,blue,0,b,1,0.8770036670612171
sub-13771505,115,rot,red,1,r,1,0.6454410830046982
sub-13771505,116,rot,yellow,0,g,1,0.4829885830404237
sub-13771505,117,gelb,yellow,1,g,1,0.5568487499840558
sub-13771505,118,blau,blue,1,b,1,0.6291772909462452
sub-13771505,119,blau,yellow,0,g,1,1.3872939579887316
sub-13771505,120,gelb,yellow,1,g,1,0.6113624999998137
sub-13937586,1,blau,yellow,0,g,1,0.7332398999999998
sub-13937586,2,rot,yellow,0,g,1,1.004479
sub-13937586,3,gelb,red,0,r,1,0.9637251
sub-13937586,4,blau,blue,1,b,1,0.6557303
sub-13937586,5,gelb,yellow,1,g,1,0.5780732
sub-13937586,6,blau,blue,1,b,1,0.6858938
sub-13937586,7,rot,red,1,r,1,0.7357071
sub-13937586,8,gelb,blue,0,b,1,0.5789908
sub-13937586,9,gelb,yellow,1,g,1,0.7921794
sub-13937586,10,rot,blue,0,b,1,0.7832563
sub-13937586,11,blau,red,0,r,1,0.7843335
sub-13937586,12,rot,red,1,r,1,0.6598369
sub-13937586,13,blau,blue,1,b,1,0.6028247
sub-13937586,14,blau,red,0,r,1,0.7436313
sub-13937586,15,rot,blue,0,b,1,0.528191
sub-13937586,16,rot,yellow,0,g,1,0.6670052
sub-13937586,17,rot,red,1,r,1,0.6033707
sub-13937586,18,rot,red,1,r,1,0.6005113
sub-13937586,19,gelb,blue,0,b,1,0.4379721
sub-13937586,20,blau,blue,1,b,1,0.7755484
sub-13937586,21,gelb,yellow,1,g,1,0.8836558
sub-13937586,22,gelb,yellow,1,g,1,0.49741
sub-13937586,23,gelb,red,0,r,1,0.6104559
sub-13937586,24,blau,yellow,0,b,0,0.6423002
sub-13937586,25,rot,red,1,r,1,0.5351588
sub-13937586,26,blau,red,0,r,1,0.809365
sub-13937586,27,gelb,yellow,1,g,1,0.5632672
sub-13937586,28,gelb,yellow,1,g,1,0.5258395
sub-13937586,29,blau,yellow,0,g,1,0.744802
sub-13937586,30,blau,blue,1,b,1,0.5678494
sub-13937586,31,gelb,blue,0,b,1,0.7619156
sub-13937586,32,rot,blue,0,b,1,0.4492497
sub-13937586,33,rot,yellow,0,g,1,0.8655625
sub-13937586,34,blau,blue,1,b,1,0.5351212
sub-13937586,35,rot,red,1,r,1,0.600775
sub-13937586,36,gelb,red,0,r,1,0.6909218
sub-13937586,37,gelb,yellow,1,g,1,1.2204787
sub-13937586,38,blau,yellow,0,g,1,0.5309354
sub-13937586,39,gelb,yellow,1,g,1,0.4776062
sub-13937586,40,blau,blue,1,b,1,0.5536676
sub-13937586,41,blau,blue,1,b,1,0.4012249
sub-13937586,42,rot,red,1,r,1,0.5290348
sub-13937586,43,rot,blue,0,b,1,0.5621083
sub-13937586,44,blau,red,0,r,1,1.008976
sub-13937586,45,rot,yellow,0,g,1,0.5640003
sub-13937586,46,rot,red,1,r,1,0.5402989
sub-13937586,47,gelb,red,0,r,1,0.6864409
sub-13937586,48,gelb,blue,0,b,1,0.4548617
sub-13937586,49,blau,blue,1,b,1,0.4218018
sub-13937586,50,rot,red,1,r,1,0.4315265
sub-13937586,51,blau,red,0,r,1,0.5777534
sub-13937586,52,gelb,yellow,1,g,1,0.5405261
sub-13937586,53,gelb,yellow,1,g,1,0.4842663
sub-13937586,54,gelb,blue,0,b,1,0.5834513
sub-13937586,55,blau,yellow,0,r,0,0.935802
sub-13937586,56,blau,blue,1,b,1,0.5915902
sub-13937586,57,rot,blue,0,b,1,0.424867
sub-13937586,58,rot,red,1,r,1,0.5703152
sub-13937586,59,gelb,red,0,r,1,0.5130203
sub-13937586,60,rot,yellow,0,g,1,1.7077258
sub-13937586,61,blau,blue,1,b,1,0.6999682
sub-13937586,62,gelb,red,0,r,1,0.5176051
sub-13937586,63,rot,red,1,r,1,0.5037754
sub-13937586,64,gelb,blue,0,b,1,0.487815
sub-13937586,65,blau,yellow,0,g,1,0.5827115
sub-13937586,66,rot,yellow,0,g,1,0.4865598
sub-13937586,67,rot,red,1,r,1,0.5419939
sub-13937586,68,gelb,yellow,1,g,1,1.3237672
sub-13937586,69,blau,red,0,r,1,0.5085244
sub-13937586,70,gelb,yellow,1,g,1,0.5715655
sub-13937586,71,rot,blue,0,b,1,0.5625206
sub-13937586,72,blau,blue,1,b,1,0.3930046
sub-13937586,73,gelb,yellow,1,g,1,0.5265195
sub-13937586,74,blau,yellow,0,g,1,0.5412305
sub-13937586,75,rot,yellow,0,g,1,0.4390302
sub-13937586,76,rot,red,1,r,1,0.4500603
sub-13937586,77,gelb,red,0,r,1,0.6228428
sub-13937586,78,blau,red,0,r,1,0.5577713
sub-13937586,79,gelb,blue,0,b,1,0.9241605
sub-13937586,80,blau,blue,1,b,1,0.4718994
sub-13937586,81,rot,red,1,r,1,0.7158914
sub-13937586,82,gelb,yellow,1,g,1,0.6159879
sub-13937586,83,blau,blue,1,b,1,0.5465115
sub-13937586,84,rot,blue,0,b,1,0.5576127
sub-13937586,85,rot,blue,0,b,1,0.4600836
sub-13937586,86,blau,red,0,r,1,0.6173509
sub-13937586,87,blau,blue,1,b,1,0.5303373
sub-13937586,88,gelb,red,0,r,1,0.6888953
sub-13937586,89,rot,red,1,r,1,0.4269948
sub-13937586,90,rot,yellow,0,g,1,0.725602
sub-13937586,91,gelb,yellow,1,g,1,0.4374818
sub-13937586,92,gelb,yellow,1,g,1,0.5118549
sub-13937586,93,blau,yellow,0,g,1,0.6963179
sub-13937586,94,gelb,blue,0,b,1,0.3497649
sub-13937586,95,blau,blue,1,b,1,0.3697931
sub-13937586,96,rot,red,1,r,1,0.5909944
sub-13937586,97,rot,red,1,r,1,0.3980579
sub-13937586,98,gelb,yellow,1,g,1,0.5310745
sub-13937586,99,blau,blue,1,b,1,0.450687
sub-13937586,100,blau,red,0,r,1,0.8488917
sub-13937586,101,rot,yellow,0,g,1,0.8499359
sub-13937586,102,gelb,red,0,r,1,0.7286115
sub-13937586,103,gelb,yellow,1,g,1,0.5595087
sub-13937586,104,blau,yellow,0,g,1,0.8125125
sub-13937586,105,rot,red,1,r,1,0.4578366
sub-13937586,106,gelb,blue,0,b,1,0.4003765
sub-13937586,107,rot,blue,0,b,1,0.4574479
sub-13937586,108,blau,blue,1,b,1,0.3735896
sub-13937586,109,rot,yellow,0,g,1,0.7835068
sub-13937586,110,blau,yellow,0,g,1,0.4567465
sub-13937586,111,gelb,red,0,r,1,0.5374727
sub-13937586,112,rot,blue,0,b,1,0.3502879
sub-13937586,113,gelb,blue,0,b,1,0.4760231
sub-13937586,114,blau,blue,1,b,1,0.3525183
sub-13937586,115,gelb,yellow,1,g,1,0.5903807
sub-13937586,116,blau,blue,1,b,1,0.4951513
sub-13937586,117,rot,red,1,g,0,0.5223067
sub-13937586,118,rot,red,1,r,1,0.4473202
sub-13937586,119,blau,red,0,r,1,0.3985125
sub-13937586,120,gelb,yellow,1,g,1,0.6078718
sub-13951382,1,rot,red,1,r,1,0.698678015999576
sub-13951382,2,blau,blue,1,b,1,0.7678708500006906
sub-13951382,3,blau,red,0,r,1,0.7164472049998949
sub-13951382,4,rot,yellow,0,g,1,0.38057214400032535
sub-13951382,5,rot,blue,0,b,1,0.7793278530007228
sub-13951382,6,gelb,yellow,1,g,1,0.5823204589996749
sub-13951382,7,gelb,blue,0,b,1,0.7352042440006699
sub-13951382,8,gelb,red,0,r,1,0.3930389699999069
sub-13951382,9,gelb,yellow,1,g,1,0.6521216529999947
sub-13951382,10,rot,red,1,r,1,0.8750917719999052
sub-13951382,11,blau,yellow,0,g,1,0.9866703469997448
sub-13951382,12,blau,blue,1,b,1,0.6572225830004754
sub-13951382,13,blau,blue,1,b,1,0.6688385699999344
sub-13951382,14,gelb,yellow,1,g,1,0.9037335089997214
sub-13951382,15,rot,red,1,r,1,0.5352066489995195
sub-13951382,16,gelb,red,0,r,1,1.31523339999967
sub-13951382,17,gelb,blue,0,b,1,1.5531759450004756
sub-13951382,18,rot,yellow,0,g,1,0.753757778000363
sub-13951382,19,blau,yellow,0,g,1,0.9189325480001572
sub-13951382,20,gelb,yellow,1,g,1,0.6851241660006053
sub-13951382,21,blau,red,0,r,1,0.8686021590001474
sub-13951382,22,rot,blue,0,b,1,0.6793525330003831
sub-13951382,23,rot,red,1,r,1,0.5131448550000641
sub-13951382,24,blau,blue,1,b,1,1.0078805439998175
sub-13951382,25,blau,blue,1,b,1,0.40786756800025614
sub-13951382,26,gelb,red,0,r,1,0.6691850529996373
sub-13951382,27,rot,red,1,r,1,0.4686182360001112
sub-13951382,28,gelb,blue,0,b,1,0.6179850399994393
sub-13951382,29,blau,blue,1,b,1,0.43689660700056265
sub-13951382,30,rot,red,1,r,1,0.4319744240001455
sub-13951382,31,blau,red,0,r,1,0.4011461070003861
sub-13951382,32,rot,yellow,0,g,1,0.37312969000049634
sub-13951382,33,rot,blue,0,b,1,0.7495592450004551
sub-13951382,34,gelb,yellow,1,g,1,0.6154764930006422
sub-13951382,35,blau,yellow,0,g,1,0.631720759000018
sub-13951382,36,gelb,yellow,1,g,1,0.47505925399946136
sub-13951382,37,gelb,yellow,1,g,1,0.5264167449995512
sub-13951382,38,rot,blue,0,b,1,0.6246975280000697
sub-13951382,39,blau,red,0,r,1,0.5102355270000771
sub-13951382,40,rot,yellow,0,g,1,0.7490809020000597
sub-13951382,41,gelb,blue,0,b,1,0.9948168760001864
sub-13951382,42,rot,red,1,r,1,0.4613691510003264
sub-13951382,43,blau,yellow,0,g,1,0.6855789849996654
sub-13951382,44,gelb,red,0,r,1,0.5517237490003026
sub-13951382,45,gelb,yellow,1,g,1,0.7303004890000011
sub-13951382,46,rot,red,1,r,1,0.559520746999624
sub-13951382,47,blau,blue,1,b,1,0.42519584399997257
sub-13951382,48,blau,blue,1,b,1,0.4330348580006103
sub-13951382,49,rot,red,1,r,1,0.4706226409998635
sub-13951382,50,gelb,red,0,r,1,0.4641878490001546
sub-13951382,51,blau,blue,1,b,1,0.5334853929998644
sub-13951382,52,blau,yellow,0,g,1,0.648734601999422
sub-13951382,53,gelb,yellow,1,g,1,0.4683192419997795
sub-13951382,54,blau,blue,1,b,1,0.7455234460003339
sub-13951382,55,rot,blue,0,b,1,0.4509497819999524
sub-13951382,56,rot,red,1,r,1,0.5586915060002866
sub-13951382,57,rot,yellow,0,g,1,0.5680966919999264
sub-13951382,58,gelb,yellow,1,g,1,0.4118275290002202
sub-13951382,59,gelb,blue,0,b,1,0.5961138940001547
sub-13951382,60,blau,red,0,r,1,0.4743713080006273
sub-13951382,61,blau,blue,1,b,1,0.5912558090003586
sub-13951382,62,gelb,red,0,r,1,0.753059642000153
sub-13951382,63,gelb,yellow,1,g,1,0.5964863550007067
sub-13951382,64,blau,blue,1,b,1,0.6440531790003661
sub-13951382,65,rot,blue,0,b,1,0.7794019519997164
sub-13951382,66,blau,yellow,0,g,1,0.7485446520004189
sub-13951382,67,gelb,yellow,1,g,1,0.5327996220003115
sub-13951382,68,blau,red,0,r,1,0.5089573519999249
sub-13951382,69,rot,red,1,r,1,0.5610218639994855
sub-13951382,70,rot,red,1,r,1,0.39270050000050105
sub-13951382,71,gelb,blue,0,b,1,1.007156663999922
sub-13951382,72,rot,yellow,0,g,1,0.9005169519996343
sub-13951382,73,gelb,red,0,r,1,0.4853327630007698
sub-13951382,74,rot,blue,0,b,1,0.6095003020000149
sub-13951382,75,rot,yellow,0,g,1,0.8078283619997819
sub-13951382,76,gelb,blue,0,b,1,0.5851482920006674
sub-13951382,77,rot,red,1,r,1,0.5917490130004808
sub-13951382,78,blau,blue,1,b,1,0.5821882620002725
sub-13951382,79,rot,red,1,r,1,0.5832031910003934
sub-13951382,80,gelb,yellow,1,g,1,0.5967485340006533
sub-13951382,81,gelb,yellow,1,g,1,0.4345728139996936
sub-13951382,82,blau,yellow,0,g,1,0.4491977590005263
sub-13951382,83,blau,red,0,r,1,0.4709138939997501
sub-13951382,84,blau,blue,1,b,1,0.4288369730002159
sub-13951382,85,rot,blue,0,b,1,0.3744210989998464
sub-13951382,86,blau,yellow,0,g,1,0.587532476000888
sub-13951382,87,rot,red,1,r,1,0.5795379269993646
sub-13951382,88,gelb,yellow,1,g,1,0.4838228329999765
sub-13951382,89,blau,red,0,r,1,0.7209920249997595
sub-13951382,90,blau,blue,1,b,1,0.3725760439992882
sub-13951382,91,gelb,red,0,r,1,0.5856642230000944
sub-13951382,92,blau,blue,1,b,1,0.6699967760005165
sub-13951382,93,gelb,blue,0,b,1,0.5717905799992877
sub-13951382,94,rot,red,1,g,0,0.7516468889998578
sub-13951382,95,gelb,yellow,1,g,1,0.4866359630004808
sub-13951382,96,rot,yellow,0,g,1,0.507047645000057
sub-13951382,97,rot,blue,0,b,1,1.2600590470001407
sub-13951382,98,gelb,yellow,1,g,1,0.6016164849997949
sub-13951382,99,gelb,yellow,1,g,1,0.48114292999980535
sub-13951382,100,blau,red,0,r,1,0.5027954179995504
sub-13951382,101,rot,yellow,0,g,1,0.5915301980003278
sub-13951382,102,gelb,blue,0,b,1,0.6352859290000197
sub-13951382,103,rot,red,1,g,0,0.6031408939998073
sub-13951382,104,blau,blue,1,b,1,0.6085337889999209
sub-13951382,105,rot,red,1,r,1,0.5018640300004336
sub-13951382,106,gelb,red,0,r,1,0.3673751129999801
sub-13951382,107,blau,blue,1,b,1,0.696482773999378
sub-13951382,108,blau,yellow,0,g,1,0.8139922109994586
sub-13951382,109,blau,blue,1,b,1,0.5653669439998339
sub-13951382,110,gelb,blue,0,b,1,0.5921834509999826
sub-13951382,111,blau,blue,1,b,1,0.4846082700005354
sub-13951382,112,rot,red,1,r,1,0.5629775609995704
sub-13951382,113,rot,red,1,r,1,0.39177969100001053
sub-13951382,114,blau,red,0,r,1,0.36311159399974713
sub-13951382,115,gelb,red,0,r,1,0.6086744979993455
sub-13951382,116,blau,yellow,0,g,1,0.5212941150002735
sub-13951382,117,gelb,yellow,1,g,1,0.4827418149998266
sub-13951382,118,gelb,yellow,1,g,1,0.37534878099995694
sub-13951382,119,rot,yellow,0,g,1,0.3871167580000474
sub-13951382,120,rot,blue,0,b,1,0.6937345579999601
sub-14160763,1,rot,blue,0,b,1,1.2059831
sub-14160763,2,gelb,blue,0,b,1,0.8213383
sub-14160763,3,rot,red,1,r,1,0.6166312
sub-14160763,4,gelb,yellow,1,g,1,0.5422391
sub-14160763,5,blau,red,0,r,1,0.8930424
sub-14160763,6,rot,red,1,r,1,0.7648361
sub-14160763,7,gelb,red,0,r,1,0.8403649
sub-14160763,8,rot,yellow,0,g,1,0.7452607
sub-14160763,9,blau,blue,1,b,1,1.3301052
sub-14160763,10,gelb,yellow,1,g,1,0.8725433
sub-14160763,11,blau,blue,1,b,1,1.1199167
sub-14160763,12,blau,yellow,0,g,1,0.6771575
sub-14160763,13,blau,blue,1,b,1,0.7360028
sub-14160763,14,rot,red,1,r,1,0.5249384
sub-14160763,15,blau,red,0,r,1,0.8786115
sub-14160763,16,gelb,red,0,r,1,0.6260838
sub-14160763,17,gelb,yellow,1,g,1,0.5695655
sub-14160763,18,rot,red,1,r,1,0.7149311
sub-14160763,19,gelb,blue,0,b,1,0.5661407
sub-14160763,20,gelb,yellow,1,g,1,0.5974387
sub-14160763,21,rot,yellow,0,g,1,0.5197744
sub-14160763,22,rot,blue,0,b,1,0.4907399
sub-14160763,23,blau,blue,1,b,1,0.4880666
sub-14160763,24,blau,yellow,0,g,1,0.969055
sub-14160763,25,blau,red,0,r,1,0.5271642
sub-14160763,26,gelb,yellow,1,g,1,0.8527954
sub-14160763,27,gelb,blue,0,b,1,0.7211009
sub-14160763,28,rot,red,1,r,1,0.7734361
sub-14160763,29,gelb,yellow,1,g,1,0.4532073
sub-14160763,30,blau,blue,1,b,1,0.6683469
sub-14160763,31,rot,yellow,0,g,1,1.0436657
sub-14160763,32,rot,red,1,r,1,1.496134
sub-14160763,33,rot,blue,0,b,1,0.7570876
sub-14160763,34,gelb,red,0,r,1,0.9012367
sub-14160763,35,blau,yellow,0,g,1,1.3881897
sub-14160763,36,blau,blue,1,b,1,0.5801653
sub-14160763,37,gelb,red,0,r,1,0.71801
sub-14160763,38,blau,yellow,0,g,1,0.975924
sub-14160763,39,blau,blue,1,b,1,1.2145319
sub-14160763,40,rot,red,1,r,1,0.5459915
sub-14160763,41,blau,blue,1,b,1,0.9782704
sub-14160763,42,gelb,yellow,1,g,1,1.0797199
sub-14160763,43,rot,yellow,0,r,0,0.6651298
sub-14160763,44,rot,blue,0,b,1,0.8213372
sub-14160763,45,blau,red,0,r,1,0.9259468
sub-14160763,46,gelb,yellow,1,g,1,1.0238182
sub-14160763,47,rot,red,1,r,1,0.8215986
sub-14160763,48,gelb,blue,0,b,1,0.6603793
sub-14160763,49,blau,red,0,r,1,0.8154206
sub-14160763,50,blau,blue,1,b,1,0.5104182
sub-14160763,51,gelb,yellow,1,g,1,0.7366155
sub-14160763,52,gelb,red,0,r,1,0.488764
sub-14160763,53,rot,red,1,r,1,0.5507547
sub-14160763,54,gelb,blue,0,b,1,0.5532218
sub-14160763,55,blau,yellow,0,g,1,0.609071
sub-14160763,56,rot,red,1,r,1,0.5538351
sub-14160763,57,gelb,yellow,1,g,1,0.5483903
sub-14160763,58,rot,blue,0,b,1,0.6402827
sub-14160763,59,rot,yellow,0,g,1,0.7193187
sub-14160763,60,blau,blue,1,b,1,0.5971227
sub-14160763,61,gelb,yellow,1,g,1,0.7805029
sub-14160763,62,gelb,yellow,1,g,1,0.7474109
sub-14160763,63,rot,yellow,0,g,1,0.4455388
sub-14160763,64,blau,blue,1,b,1,0.6278052
sub-14160763,65,blau,red,0,r,1,0.6152338
sub-14160763,66,blau,blue,1,b,1,0.561839
sub-14160763,67,rot,red,1,r,1,0.4874101
sub-14160763,68,rot,blue,0,b,1,1.3668909
sub-14160763,69,blau,yellow,0,r,0,0.5871686
sub-14160763,70,rot,red,1,r,1,0.6488329
sub-14160763,71,gelb,blue,0,b,1,0.5509461
sub-14160763,72,gelb,red,0,r,1,0.7076251
sub-14160763,73,gelb,blue,0,b,1,0.4722796
sub-14160763,74,rot,yellow,0,r,0,0.5965993
sub-14160763,75,blau,red,0,r,1,0.5509036
sub-14160763,76,rot,red,1,r,1,0.7065499
sub-14160763,77,gelb,yellow,1,g,1,0.761912
sub-14160763,78,blau,blue,1,b,1,0.728266
sub-14160763,79,rot,blue,0,b,1,0.8596749
sub-14160763,80,gelb,red,0,r,1,0.6552691
sub-14160763,81,blau,yellow,0,g,1,0.6198543
sub-14160763,82,rot,red,1,r,1,0.8787001
sub-14160763,83,gelb,yellow,1,g,1,0.7076857
sub-14160763,84,blau,blue,1,b,1,0.5996694
sub-14160763,85,blau,red,0,r,1,1.047661
sub-14160763,86,gelb,red,0,r,1,0.5494781
sub-14160763,87,rot,blue,0,b,1,0.6126273
sub-14160763,88,blau,yellow,0,g,1,0.426569
sub-14160763,89,rot,yellow,0,g,1,0.6224834
sub-14160763,90,gelb,yellow,1,g,1,0.4915674
sub-14160763,91,blau,blue,1,b,1,0.423429
sub-14160763,92,rot,red,1,r,1,0.4321057
sub-14160763,93,gelb,blue,0,b,1,0.650902
sub-14160763,94,blau,blue,1,b,1,0.6964639
sub-14160763,95,gelb,yellow,1,g,1,0.5460158
sub-14160763,96,rot,red,1,r,1,0.6362113
sub-14160763,97,rot,blue,0,b,1,0.9518225
sub-14160763,98,gelb,yellow,1,g,1,0.5172194
sub-14160763,99,blau,yellow,0,g,1,0.7087198
sub-14160763,100,gelb,yellow,1,g,1,0.6143392
sub-14160763,101,rot,yellow,0,g,1,1.5895819
sub-14160763,102,rot,red,1,r,1,0.530447
sub-14160763,103,gelb,red,0,r,1,0.6953538
sub-14160763,104,rot,red,1,r,1,0.6078644
sub-14160763,105,blau,blue,1,b,1,0.8898016
sub-14160763,106,blau,blue,1,b,1,1.0612342
sub-14160763,107,blau,red,0,r,1,0.6523425
sub-14160763,108,gelb,blue,0,b,1,2.03823
sub-14160763,109,rot,blue,0,b,1,0.8900829
sub-14160763,110,rot,red,1,r,1,0.5403824
sub-14160763,111,gelb,red,0,r,1,0.8022904
sub-14160763,112,rot,red,1,r,1,0.6886749
