wordCTK;colorCTK;corrAnsCTK;congruentCTK;wordPractice;colorPractice;corrAnsPractice;congruentPractice;word;color;corrAns;congruent;trials_CTK.thisRepN;trials_CTK.thisTrialN;trials_CTK.thisN;trials_CTK.thisIndex;trials_practice.thisRepN;trials_practice.thisTrialN;trials_practice.thisN;trials_practice.thisIndex;trials_test.thisRepN;trials_test.thisTrialN;trials_test.thisN;trials_test.thisIndex;thisRow.t;notes;instruction.started;instr_text.started;instr_image.started;instr_resp.started;instruction.stopped;instr_resp.keys;instr_resp.rt;instr_resp.duration;instr_color_to_key.started;instr_ctk.started;resp_ctk.started;instr_color_to_key.stopped;resp_ctk.keys;resp_ctk.rt;resp_ctk.duration;ITI.started;fixcross.started;fixcross.stopped;ITI.stopped;color_to_key_run.started;stimulus_CTK.started;keyResp_CTK.started;color_to_key_run.stopped;keyResp_CTK.keys;keyResp_CTK.corr;keyResp_CTK.rt;keyResp_CTK.duration;instr_practice.started;instr_practice_text.started;instr_practice_resp.started;instr_practice.stopped;instr_practice_resp.keys;instr_practice_resp.rt;instr_practice_resp.duration;practice_run.started;stimulus_practice.started;respPractice.started;practice_run.stopped;respPractice.keys;respPractice.corr;respPractice.rt;respPractice.duration;feedback.started;textFeedback.started;feedback.stopped;textFeedback.stopped;instr_test.started;instr_test_text.started;instr_test_resp.started;instr_test.stopped;instr_test_resp.keys;instr_test_resp.rt;instr_test_resp.duration;test_run.started;stimulus_test_run.started;keyResp_test_run.started;test_run.stopped;keyResp_test_run.keys;keyResp_test_run.corr;keyResp_test_run.rt;keyResp_test_run.duration;goodbye.started;textGoodbye.started;goodbye.stopped;participant;session;date;expName;psychopyVersion;frameRate;expStart
;;;;;;;;;;;;;;;;;;;;;;;;;;0.0016369;0.0520093;0.0520093;0.0520093;3.3452228;space;3.29153;None;;;;;;;;;;;;;;;;;;;;;;;;;;;;;;;;;;;;;;;;;;;;;;;;;;;;;;;;;sub-871355;1;2024-03-11_13h23.52.182;stroop_test;03.02.2023;59.9509242;2024-03-11 13h23.59.360344 +0100
;;;;;;;;;;;;;;;;;;;;;;;;;;;;;;;;;;3.3452752;3.3598173;3.3598173;6.7771001;space;3.4009241;None;;;;;;;;;;;;;;;;;;;;;;;;;;;;;;;;;;;;;;;;;;;;;;;;;;sub-871355;1;2024-03-11_13h23.52.182;stroop_test;03.02.2023;59.9509242;2024-03-11 13h23.59.360344 +0100
test;blue;b;1;;;;;;;;;0;0;0;2;;;;;;;;;6.7945817;;;;;;;;;;;;;;;;;6.7922402;7.5922944;8.3918822;8.3762721;8.3763155;8.3918822;8.3918822;9.6428856;b;1;1.2401274;None;;;;;;;;;;;;;;;;;;;;;;;;;;;;;;;;;;;;;;sub-871355;1;2024-03-11_13h23.52.182;stroop_test;03.02.2023;59.9509242;2024-03-11 13h23.59.360344 +0100
test;red;r;1;;;;;;;;;0;1;1;0;;;;;;;;;9.6581402;;;;;;;;;;;;;;;;;9.6443337;10.8581123;11.6579469;11.6424519;11.64249;11.6579469;11.6579469;12.2091018;r;1;0.5442289;None;;;;;;;;;;;;;;;;;;;;;;;;;;;;;;;;;;;;;;sub-871355;1;2024-03-11_13h23.52.182;stroop_test;03.02.2023;59.9509242;2024-03-11 13h23.59.360344 +0100
test;yellow;g;1;;;;;;;;;0;2;2;1;;;;;;;;;12.2245229;;;;;;;;;;;;;;;;;12.2102376;13.4242342;14.224133;14.2081492;14.2081781;14.224133;14.224133;14.6259428;g;1;0.3975413;None;;;;;;;;;;;;;;;;;;;;;;;;;;;;;;;;;;;;;;sub-871355;1;2024-03-11_13h23.52.182;stroop_test;03.02.2023;59.9509242;2024-03-11 13h23.59.360344 +0100
test;blue;b;1;;;;;;;;;1;0;3;2;;;;;;;;;14.640844;;;;;;;;;;;;;;;;;14.6269336;15.440432;16.2402383;16.2245724;16.2246047;16.2402383;16.2402383;16.5749909;b;1;0.3296951;None;;;;;;;;;;;;;;;;;;;;;;;;;;;;;;;;;;;;;;sub-871355;1;2024-03-11_13h23.52.182;stroop_test;03.02.2023;59.9509242;2024-03-11 13h23.59.360344 +0100
test;yellow;g;1;;;;;;;;;1;1;4;1;;;;;;;;;16.5899305;;;;;;;;;;;;;;;;;16.5760649;16.9403914;17.7401647;17.7242593;17.7242924;17.7401647;17.7401647;18.190975;g;1;0.4422465;None;;;;;;;;;;;;;;;;;;;;;;;;;;;;;;;;;;;;;;sub-871355;1;2024-03-11_13h23.52.182;stroop_test;03.02.2023;59.9509242;2024-03-11 13h23.59.360344 +0100
test;red;r;1;;;;;;;;;1;2;5;0;;;;;;;;;18.2062612;;;;;;;;;;;;;;;;;18.1918996;18.3063389;19.1061427;19.0906102;19.0906427;19.1061427;19.1061427;19.5244548;r;1;0.4038797;None;;;;;;;;;;;;;;;;;;;;;;;;;;;;;;;;;;;;;;sub-871355;1;2024-03-11_13h23.52.182;stroop_test;03.02.2023;59.9509242;2024-03-11 13h23.59.360344 +0100
test;red;r;1;;;;;;;;;2;0;6;0;;;;;;;;;19.5393657;;;;;;;;;;;;;;;;;19.525573;20.3393647;21.1392998;21.1234012;21.1234321;21.1392998;21.1392998;21.5740414;r;1;0.4253778;None;;;;;;;;;;;;;;;;;;;;;;;;;;;;;;;;;;;;;;sub-871355;1;2024-03-11_13h23.52.182;stroop_test;03.02.2023;59.9509242;2024-03-11 13h23.59.360344 +0100
test;blue;b;1;;;;;;;;;2;1;7;2;;;;;;;;;21.588956;;;;;;;;;;;;;;;;;21.5750864;21.939228;22.7388525;22.7234199;22.7234537;22.7388525;22.7388525;23.1907489;b;1;0.4386034;None;;;;;;;;;;;;;;;;;;;;;;;;;;;;;;;;;;;;;;sub-871355;1;2024-03-11_13h23.52.182;stroop_test;03.02.2023;59.9509242;2024-03-11 13h23.59.360344 +0100
test;yellow;g;1;;;;;;;;;2;2;8;1;;;;;;;;;23.2052706;;;;;;;;;;;;;;;;;23.1917196;23.3056003;24.105288;24.0897277;24.0897692;24.105288;24.105288;24.7898453;g;1;0.6810854;None;;;;;;;;;;;;;;;;;;;;;;;;;;;;;;;;;;;;;;sub-871355;1;2024-03-11_13h23.52.182;stroop_test;03.02.2023;59.9509242;2024-03-11 13h23.59.360344 +0100
test;yellow;g;1;;;;;;;;;3;0;9;1;;;;;;;;;24.8049463;;;;;;;;;;;;;;;;;24.7908712;26.0050219;26.8047417;26.7887515;26.7887895;26.8047417;26.8047417;27.3056475;g;1;0.4923647;None;;;;;;;;;;;;;;;;;;;;;;;;;;;;;;;;;;;;;;sub-871355;1;2024-03-11_13h23.52.182;stroop_test;03.02.2023;59.9509242;2024-03-11 13h23.59.360344 +0100
test;blue;b;1;;;;;;;;;3;1;10;2;;;;;;;;;27.3210561;;;;;;;;;;;;;;;;;27.3066836;27.4212807;28.2210832;28.2053406;28.205388;28.2210832;28.2210832;28.6386655;b;1;0.4020821;None;;;;;;;;;;;;;;;;;;;;;;;;;;;;;;;;;;;;;;sub-871355;1;2024-03-11_13h23.52.182;stroop_test;03.02.2023;59.9509242;2024-03-11 13h23.59.360344 +0100
test;red;r;1;;;;;;;;;3;2;11;0;;;;;;;;;28.6543033;;;;;;;;;;;;;;;;;28.6396019;28.7542942;29.5539501;29.5384221;29.5384545;29.5539501;29.5539501;30.0214833;r;1;0.4522017;None;;;;;;;;;;;;;;;;;;;;;;;;;;;;;;;;;;;;;;sub-871355;1;2024-03-11_13h23.52.182;stroop_test;03.02.2023;59.9509242;2024-03-11 13h23.59.360344 +0100
;;;;;;;;;;;;;;;;;;;;;;;;;;;;;;;;;;;;;;;;;;;;;;;;;;;;;30.0221287;30.0374323;30.0374323;36.170795;space;6.1263524;None;;;;;;;;;;;;;;;;;;;;;;;;;;;;;;;sub-871355;1;2024-03-11_13h23.52.182;stroop_test;03.02.2023;59.9509242;2024-03-11 13h23.59.360344 +0100
;;;;rot;yellow;g;0;;;;;;;;;0;0;0;3;;;;;36.2511569;;;;;;;;;;;;;;;;;36.2485813;36.2555767;37.0691944;37.0534278;;;;;;;;;;;;;;;;37.0534599;37.0691944;37.0691944;37.5870632;g;1;0.5126816;None;37.588181;37.604822;38.602661;;;;;;;;;;;;;;;;;;;;sub-871355;1;2024-03-11_13h23.52.182;stroop_test;03.02.2023;59.9509242;2024-03-11 13h23.59.360344 +0100
;;;;blau;yellow;g;0;;;;;;;;;0;1;1;7;;;;;38.6189166;;;;;;;;;;;;;;;;;38.603218;39.4021506;40.201987;40.1861415;;;;;;;;;;;;;;;;40.1861747;40.201987;40.201987;40.6697915;g;1;0.4563332;None;40.6705076;40.6849526;41.6689285;41.6848518;;;;;;;;;;;;;;;;;;;sub-871355;1;2024-03-11_13h23.52.182;stroop_test;03.02.2023;59.9509242;2024-03-11 13h23.59.360344 +0100
;;;;gelb;yellow;g;1;;;;;;;;;0;2;2;10;;;;;41.6848518;;;;;;;;;;;;;;;;;41.6694061;42.8845945;43.6842932;43.6688816;;;;;;;;;;;;;;;;43.6689122;43.6842932;43.6842932;44.1523054;g;1;0.465281;None;44.1529953;44.1678741;45.1518931;45.1676449;;;;;;;;;;;;;;;;;;;sub-871355;1;2024-03-11_13h23.52.182;stroop_test;03.02.2023;59.9509242;2024-03-11 13h23.59.360344 +0100
;;;;gelb;blue;b;0;;;;;;;;;0;3;3;9;;;;;45.1676449;;;;;;;;;;;;;;;;;45.152512;46.3672782;47.1670612;47.1513741;;;;;;;;;;;;;;;;47.15141;47.1670612;47.1670612;47.6016211;b;1;0.424156;None;47.6023771;47.6169785;48.6009574;48.6169639;;;;;;;;;;;;;;;;;;;sub-871355;1;2024-03-11_13h23.52.182;stroop_test;03.02.2023;59.9509242;2024-03-11 13h23.59.360344 +0100
;;;;gelb;yellow;g;1;;;;;;;;;0;4;4;11;;;;;48.6169639;;;;;;;;;;;;;;;;;48.6015166;48.7168079;49.5168547;49.500867;;;;;;;;;;;;;;;;49.5008966;49.5168547;49.5168547;50.2010795;g;1;0.6742235;None;50.2017119;50.2162969;51.2002683;51.2163713;;;;;;;;;;;;;;;;;;;sub-871355;1;2024-03-11_13h23.52.182;stroop_test;03.02.2023;59.9509242;2024-03-11 13h23.59.360344 +0100
;;;;blau;blue;b;1;;;;;;;;;0;5;5;5;;;;;51.2163713;;;;;;;;;;;;;;;;;51.2007704;51.3162704;52.1161566;52.1002868;;;;;;;;;;;;;;;;52.1003163;52.1161566;52.1161566;52.5506258;b;1;0.4194298;None;52.5512501;52.5657533;53.5499731;53.5655658;;;;;;;;;;;;;;;;;;;sub-871355;1;2024-03-11_13h23.52.182;stroop_test;03.02.2023;59.9509242;2024-03-11 13h23.59.360344 +0100
;;;;rot;red;r;1;;;;;;;;;0;6;6;0;;;;;53.5655658;;;;;;;;;;;;;;;;;53.5505395;54.7656703;55.5652764;55.5495974;;;;;;;;;;;;;;;;55.5496461;55.5652764;55.5652764;55.8995198;r;1;0.3174594;None;55.9000851;55.9153639;56.8993661;56.9151326;;;;;;;;;;;;;;;;;;;sub-871355;1;2024-03-11_13h23.52.182;stroop_test;03.02.2023;59.9509242;2024-03-11 13h23.59.360344 +0100
;;;;blau;blue;b;1;;;;;;;;;0;7;7;6;;;;;56.9151326;;;;;;;;;;;;;;;;;56.8998753;57.0151216;57.814982;57.7989271;;;;;;;;;;;;;;;;57.7989564;57.814982;57.814982;58.3158653;b;1;0.4847399;None;58.3165747;58.3313167;59.3154135;59.3309462;;;;;;;;;;;;;;;;;;;sub-871355;1;2024-03-11_13h23.52.182;stroop_test;03.02.2023;59.9509242;2024-03-11 13h23.59.360344 +0100
;;;;rot;blue;b;0;;;;;;;;;0;8;8;2;;;;;59.3309462;;;;;;;;;;;;;;;;;59.3159142;60.5306839;61.3303656;61.3150886;;;;;;;;;;;;;;;;61.3151186;61.3303656;61.3303656;61.9819232;b;1;0.6492814;None;61.9825944;61.9971645;62.9810345;62.9971671;;;;;;;;;;;;;;;;;;;sub-871355;1;2024-03-11_13h23.52.182;stroop_test;03.02.2023;59.9509242;2024-03-11 13h23.59.360344 +0100
;;;;gelb;red;r;0;;;;;;;;;0;9;9;8;;;;;62.9971671;;;;;;;;;;;;;;;;;62.9815496;63.7970334;64.5967123;64.5808761;;;;;;;;;;;;;;;;64.5809091;64.5967123;64.5967123;65.0146604;r;1;0.4146875;None;65.015349;65.0296849;66.0140423;66.029562;;;;;;;;;;;;;;;;;;;sub-871355;1;2024-03-11_13h23.52.182;stroop_test;03.02.2023;59.9509242;2024-03-11 13h23.59.360344 +0100
;;;;blau;red;r;0;;;;;;;;;0;10;10;4;;;;;66.029562;;;;;;;;;;;;;;;;;66.0145525;66.829391;67.6290978;67.6137288;;;;;;;;;;;;;;;;67.6137589;67.6290978;67.6290978;68.3139185;r;1;0.6737443;None;68.3145461;68.3290062;69.3130683;69.3288524;;;;;;;;;;;;;;;;;;;sub-871355;1;2024-03-11_13h23.52.182;stroop_test;03.02.2023;59.9509242;2024-03-11 13h23.59.360344 +0100
;;;;rot;red;r;1;;;;;;;;;0;11;11;1;;;;;69.3288524;;;;;;;;;;;;;;;;;69.3135515;69.4288639;70.2287547;70.2131864;;;;;;;;;;;;;;;;70.213217;70.2287547;70.2287547;70.7135239;r;1;0.478614;None;70.7142187;70.7285273;71.7126401;71.7285608;;;;;;;;;;;;;;;;;;;sub-871355;1;2024-03-11_13h23.52.182;stroop_test;03.02.2023;59.9509242;2024-03-11 13h23.59.360344 +0100
;;;;blau;yellow;g;0;;;;;;;;;1;0;12;7;;;;;71.7285608;;;;;;;;;;;;;;;;;71.7131419;71.8285004;72.6281727;72.6125144;;;;;;;;;;;;;;;;72.6125478;72.6281727;72.6281727;73.1961773;g;1;0.5540914;None;73.1967981;73.2116615;74.1953796;74.2113695;;;;;;;;;;;;;;;;;;;sub-871355;1;2024-03-11_13h23.52.182;stroop_test;03.02.2023;59.9509242;2024-03-11 13h23.59.360344 +0100
;;;;gelb;yellow;g;1;;;;;;;;;1;1;13;11;;;;;74.2113695;;;;;;;;;;;;;;;;;74.1958463;75.0112714;75.8112099;75.795057;;;;;;;;;;;;;;;;75.795101;75.8112099;75.8112099;76.2785641;g;1;0.4577796;None;76.2792488;76.2942035;77.2782069;77.2940119;;;;;;;;;;;;;;;;;;;sub-871355;1;2024-03-11_13h23.52.182;stroop_test;03.02.2023;59.9509242;2024-03-11 13h23.59.360344 +0100
;;;;rot;red;r;1;;;;;;;;;1;2;14;0;;;;;77.2940119;;;;;;;;;;;;;;;;;77.2787825;77.6439712;78.4438412;78.4278127;;;;;;;;;;;;;;;;78.4278534;78.4438412;78.4438412;78.9117845;r;1;0.455071;None;78.9124661;78.9268916;79.9111087;79.9266597;;;;;;;;;;;;;;;;;;;sub-871355;1;2024-03-11_13h23.52.182;stroop_test;03.02.2023;59.9509242;2024-03-11 13h23.59.360344 +0100
;;;;rot;blue;b;0;;;;;;;;;1;3;15;2;;;;;79.9266597;;;;;;;;;;;;;;;;;79.9116107;81.1260809;81.926267;81.9105112;;;;;;;;;;;;;;;;81.9105405;81.926267;81.926267;82.394205;b;1;0.4550483;None;82.394831;82.409461;83.3937821;83.4094506;;;;;;;;;;;;;;;;;;;sub-871355;1;2024-03-11_13h23.52.182;stroop_test;03.02.2023;59.9509242;2024-03-11 13h23.59.360344 +0100
;;;;blau;red;r;0;;;;;;;;;1;4;16;4;;;;;83.4094506;;;;;;;;;;;;;;;;;83.3942918;83.7594851;84.5593998;84.5432452;;;;;;;;;;;;;;;;84.5432748;84.5593998;84.5593998;85.2107265;r;1;0.6409305;None;85.2114191;85.2253688;86.2095435;86.225379;;;;;;;;;;;;;;;;;;;sub-871355;1;2024-03-11_13h23.52.182;stroop_test;03.02.2023;59.9509242;2024-03-11 13h23.59.360344 +0100
;;;;gelb;yellow;g;1;;;;;;;;;1;5;17;10;;;;;86.225379;;;;;;;;;;;;;;;;;86.2100322;86.3253567;87.1249914;87.1095718;;;;;;;;;;;;;;;;87.109612;87.1249914;87.1249914;87.5099378;g;1;0.3762807;None;87.510612;87.524758;88.5091792;88.5248677;;;;;;;;;;;;;;;;;;;sub-871355;1;2024-03-11_13h23.52.182;stroop_test;03.02.2023;59.9509242;2024-03-11 13h23.59.360344 +0100
;;;;blau;blue;b;1;;;;;;;;;1;6;18;5;;;;;88.5248677;;;;;;;;;;;;;;;;;88.5096957;89.324714;90.1244425;90.1089021;;;;;;;;;;;;;;;;90.108933;90.1244425;90.1244425;90.5088318;b;1;0.3675029;None;90.5094752;90.5243037;91.5086511;91.5242704;;;;;;;;;;;;;;;;;;;sub-871355;1;2024-03-11_13h23.52.182;stroop_test;03.02.2023;59.9509242;2024-03-11 13h23.59.360344 +0100
;;;;gelb;red;r;0;;;;;;;;;1;7;19;8;;;;;91.5242704;;;;;;;;;;;;;;;;;91.5091505;92.324081;93.1238564;93.108112;;;;;;;;;;;;;;;;93.1081418;93.1238564;93.1238564;93.6253134;r;1;0.4995344;None;93.6259892;93.6405156;94.6242847;94.6403052;;;;;;;;;;;;;;;;;;;sub-871355;1;2024-03-11_13h23.52.182;stroop_test;03.02.2023;59.9509242;2024-03-11 13h23.59.360344 +0100
;;;;rot;red;r;1;;;;;;;;;1;8;20;1;;;;;94.6403052;;;;;;;;;;;;;;;;;94.6248226;94.9902935;95.790295;95.7741343;;;;;;;;;;;;;;;;95.7741646;95.790295;95.790295;96.2243759;r;1;0.4226556;None;96.2250975;96.2399938;97.2238269;97.2398554;;;;;;;;;;;;;;;;;;;sub-871355;1;2024-03-11_13h23.52.182;stroop_test;03.02.2023;59.9509242;2024-03-11 13h23.59.360344 +0100
;;;;gelb;blue;b;0;;;;;;;;;1;9;21;9;;;;;97.2398554;;;;;;;;;;;;;;;;;97.2243551;98.4395689;99.2393557;99.2234574;;;;;;;;;;;;;;;;99.2234876;99.2393557;99.2393557;99.6904483;b;1;0.4356149;None;99.6910571;99.7060996;100.6900026;100.7058309;;;;;;;;;;;;;;;;;;;sub-871355;1;2024-03-11_13h23.52.182;stroop_test;03.02.2023;59.9509242;2024-03-11 13h23.59.360344 +0100
;;;;blau;blue;b;1;;;;;;;;;1;10;22;6;;;;;100.7058309;;;;;;;;;;;;;;;;;100.6905414;101.5056538;102.3055522;102.2895038;;;;;;;;;;;;;;;;102.2895325;102.3055522;102.3055522;102.8399287;b;1;0.5203714;None;102.8405689;102.8550138;103.8395647;103.8550332;;;;;;;;;;;;;;;;;;;sub-871355;1;2024-03-11_13h23.52.182;stroop_test;03.02.2023;59.9509242;2024-03-11 13h23.59.360344 +0100
;;;;rot;yellow;g;0;;;;;;;;;1;11;23;3;;;;;103.8550332;;;;;;;;;;;;;;;;;103.8400781;105.0549102;105.8546804;105.8386312;;;;;;;;;;;;;;;;105.8386627;105.8546804;105.8546804;106.2891074;g;1;0.4232858;None;106.2897432;106.3044161;107.2885586;107.3042266;;;;;;;;;;;;;;;;;;;sub-871355;1;2024-03-11_13h23.52.182;stroop_test;03.02.2023;59.9509242;2024-03-11 13h23.59.360344 +0100
;;;;;;;;;;;;;;;;;;;;;;;;;;;;;;;;;;;;;;;;;;;;;;;;;;;;;;;;;;;;;;;;;;;;;;;;107.2886606;107.3042266;107.3042266;112.7880515;space;5.4819718;None;;;;;;;;;;;;sub-871355;1;2024-03-11_13h23.52.182;stroop_test;03.02.2023;59.9509242;2024-03-11 13h23.59.360344 +0100
;;;;;;;;gelb;red;r;0;;;;;;;;;0;0;0;8;112.8069148;;;;;;;;;;;;;;;;;112.804244;113.1531627;113.9530833;113.9371575;;;;;;;;;;;;;;;;;;;;;;;;;;;;;;;;;;;113.9371948;113.9530833;113.9530833;114.4708983;r;1;0.506388;None;;;;sub-871355;1;2024-03-11_13h23.52.182;stroop_test;03.02.2023;59.9509242;2024-03-11 13h23.59.360344 +0100
;;;;;;;;rot;yellow;g;0;;;;;;;;;0;1;1;3;114.4860076;;;;;;;;;;;;;;;;;114.4728034;114.5861679;115.3859434;115.3700631;;;;;;;;;;;;;;;;;;;;;;;;;;;;;;;;;;;115.3701023;115.3859434;115.3859434;115.853866;g;1;0.4617986;None;;;;sub-871355;1;2024-03-11_13h23.52.182;stroop_test;03.02.2023;59.9509242;2024-03-11 13h23.59.360344 +0100
;;;;;;;;gelb;yellow;g;1;;;;;;;;;0;2;2;10;115.8688245;;;;;;;;;;;;;;;;;115.8550317;116.6686842;117.4686077;117.4529228;;;;;;;;;;;;;;;;;;;;;;;;;;;;;;;;;;;117.4529535;117.4686077;117.4686077;117.8535015;g;1;0.3771412;None;;;;sub-871355;1;2024-03-11_13h23.52.182;stroop_test;03.02.2023;59.9509242;2024-03-11 13h23.59.360344 +0100
;;;;;;;;blau;blue;b;1;;;;;;;;;0;3;3;6;117.8683312;;;;;;;;;;;;;;;;;117.8546975;118.6683781;119.4683046;119.4525645;;;;;;;;;;;;;;;;;;;;;;;;;;;;;;;;;;;119.4525957;119.4683046;119.4683046;119.9196549;b;1;0.4428867;None;;;;sub-871355;1;2024-03-11_13h23.52.182;stroop_test;03.02.2023;59.9509242;2024-03-11 13h23.59.360344 +0100
;;;;;;;;gelb;yellow;g;1;;;;;;;;;0;4;4;11;119.9347922;;;;;;;;;;;;;;;;;119.9208435;120.0349486;120.8348708;120.8188628;;;;;;;;;;;;;;;;;;;;;;;;;;;;;;;;;;;120.8189045;120.8348708;120.8348708;121.7022875;g;1;0.8588909;None;;;;sub-871355;1;2024-03-11_13h23.52.182;stroop_test;03.02.2023;59.9509242;2024-03-11 13h23.59.360344 +0100
;;;;;;;;rot;blue;b;0;;;;;;;;;0;5;5;2;121.7175534;;;;;;;;;;;;;;;;;121.7034272;122.5175755;123.3174946;123.3017414;;;;;;;;;;;;;;;;;;;;;;;;;;;;;;;;;;;123.3017718;123.3174946;123.3174946;123.7521047;b;1;0.4198893;None;;;;sub-871355;1;2024-03-11_13h23.52.182;stroop_test;03.02.2023;59.9509242;2024-03-11 13h23.59.360344 +0100
;;;;;;;;gelb;blue;b;0;;;;;;;;;0;6;6;9;123.7671258;;;;;;;;;;;;;;;;;123.7532478;124.9672984;125.7669507;125.7511422;;;;;;;;;;;;;;;;;;;;;;;;;;;;;;;;;;;125.7511724;125.7669507;125.7669507;126.1846409;b;1;0.4009638;None;;;;sub-871355;1;2024-03-11_13h23.52.182;stroop_test;03.02.2023;59.9509242;2024-03-11 13h23.59.360344 +0100
;;;;;;;;rot;red;r;1;;;;;;;;;0;7;7;1;126.2002564;;;;;;;;;;;;;;;;;126.1858167;127.3999961;128.1998785;128.184078;;;;;;;;;;;;;;;;;;;;;;;;;;;;;;;;;;;128.1841091;128.1998785;128.1998785;128.6675513;r;1;0.4527812;None;;;;sub-871355;1;2024-03-11_13h23.52.182;stroop_test;03.02.2023;59.9509242;2024-03-11 13h23.59.360344 +0100
;;;;;;;;blau;red;r;0;;;;;;;;;0;8;8;4;128.6828969;;;;;;;;;;;;;;;;;128.6687373;129.8829739;130.6827918;130.6669635;;;;;;;;;;;;;;;;;;;;;;;;;;;;;;;;;;;130.6669989;130.6827918;130.6827918;131.1337617;r;1;0.444545;None;;;;sub-871355;1;2024-03-11_13h23.52.182;stroop_test;03.02.2023;59.9509242;2024-03-11 13h23.59.360344 +0100
;;;;;;;;blau;blue;b;1;;;;;;;;;0;9;9;5;131.1493338;;;;;;;;;;;;;;;;;131.1348959;132.3489681;133.1487944;133.1330454;;;;;;;;;;;;;;;;;;;;;;;;;;;;;;;;;;;133.1330889;133.1487944;133.1487944;133.5001927;b;1;0.3495653;None;;;;sub-871355;1;2024-03-11_13h23.52.182;stroop_test;03.02.2023;59.9509242;2024-03-11 13h23.59.360344 +0100
;;;;;;;;blau;yellow;g;0;;;;;;;;;0;10;10;7;133.5151191;;;;;;;;;;;;;;;;;133.5013459;133.8651993;134.6651245;134.6492265;;;;;;;;;;;;;;;;;;;;;;;;;;;;;;;;;;;134.6492572;134.6651245;134.6651245;135.1834943;g;1;0.5158169;None;;;;sub-871355;1;2024-03-11_13h23.52.182;stroop_test;03.02.2023;59.9509242;2024-03-11 13h23.59.360344 +0100
;;;;;;;;rot;red;r;1;;;;;;;;;0;11;11;0;135.1981948;;;;;;;;;;;;;;;;;135.1846593;135.9982229;136.7981801;136.7822434;;;;;;;;;;;;;;;;;;;;;;;;;;;;;;;;;;;136.7822749;136.7981801;136.7981801;137.2327;r;1;0.4213691;None;;;;sub-871355;1;2024-03-11_13h23.52.182;stroop_test;03.02.2023;59.9509242;2024-03-11 13h23.59.360344 +0100
;;;;;;;;rot;yellow;g;0;;;;;;;;;1;0;12;3;137.2477869;;;;;;;;;;;;;;;;;137.2338959;137.5979265;138.3978576;138.3818681;;;;;;;;;;;;;;;;;;;;;;;;;;;;;;;;;;;138.3818974;138.3978576;138.3978576;138.9325365;g;1;0.5302295;None;;;;sub-871355;1;2024-03-11_13h23.52.182;stroop_test;03.02.2023;59.9509242;2024-03-11 13h23.59.360344 +0100
;;;;;;;;rot;red;r;1;;;;;;;;;1;1;13;0;138.9474681;;;;;;;;;;;;;;;;;138.9338011;140.1472853;140.9472033;140.9313261;;;;;;;;;;;;;;;;;;;;;;;;;;;;;;;;;;;140.9313582;140.9472033;140.9472033;141.3153349;r;1;0.3615357;None;;;;sub-871355;1;2024-03-11_13h23.52.182;stroop_test;03.02.2023;59.9509242;2024-03-11 13h23.59.360344 +0100
;;;;;;;;gelb;blue;b;0;;;;;;;;;1;2;14;9;141.3303189;;;;;;;;;;;;;;;;;141.3166579;141.4304108;142.2300457;142.2140987;;;;;;;;;;;;;;;;;;;;;;;;;;;;;;;;;;;142.2141301;142.2300457;142.2300457;142.7153709;b;1;0.4809343;None;;;;sub-871355;1;2024-03-11_13h23.52.182;stroop_test;03.02.2023;59.9509242;2024-03-11 13h23.59.360344 +0100
;;;;;;;;blau;blue;b;1;;;;;;;;;1;3;15;5;142.7299842;;;;;;;;;;;;;;;;;142.7164948;143.5301242;144.3298684;144.3137222;;;;;;;;;;;;;;;;;;;;;;;;;;;;;;;;;;;144.3137533;144.3298684;144.3298684;144.7645735;b;1;0.4304749;None;;;;sub-871355;1;2024-03-11_13h23.52.182;stroop_test;03.02.2023;59.9509242;2024-03-11 13h23.59.360344 +0100
;;;;;;;;gelb;yellow;g;1;;;;;;;;;1;4;16;10;144.7796988;;;;;;;;;;;;;;;;;144.7663633;145.129599;145.9295672;145.9133163;;;;;;;;;;;;;;;;;;;;;;;;;;;;;;;;;;;145.9133532;145.9295672;145.9295672;146.3972229;g;1;0.4641456;None;;;;sub-871355;1;2024-03-11_13h23.52.182;stroop_test;03.02.2023;59.9509242;2024-03-11 13h23.59.360344 +0100
;;;;;;;;blau;red;r;0;;;;;;;;;1;5;17;4;146.4124888;;;;;;;;;;;;;;;;;146.399041;146.5125453;147.3161043;147.2966358;;;;;;;;;;;;;;;;;;;;;;;;;;;;;;;;;;;147.2966673;147.3161043;147.3161043;147.713583;r;1;0.390216;None;;;;sub-871355;1;2024-03-11_13h23.52.182;stroop_test;03.02.2023;59.9509242;2024-03-11 13h23.59.360344 +0100
;;;;;;;;rot;red;r;1;;;;;;;;;1;6;18;1;147.7287896;;;;;;;;;;;;;;;;;147.7147541;148.5288061;149.3288066;149.3125005;;;;;;;;;;;;;;;;;;;;;;;;;;;;;;;;;;;149.3125435;149.3288066;149.3288066;149.8301386;r;1;0.4915513;None;;;;sub-871355;1;2024-03-11_13h23.52.182;stroop_test;03.02.2023;59.9509242;2024-03-11 13h23.59.360344 +0100
;;;;;;;;blau;yellow;g;0;;;;;;;;;1;7;19;7;149.8450184;;;;;;;;;;;;;;;;;149.8313074;149.9452321;150.7452105;150.7292443;;;;;;;;;;;;;;;;;;;;;;;;;;;;;;;;;;;150.7292758;150.7452105;150.7452105;151.2124843;g;1;0.4521594;None;;;;sub-871355;1;2024-03-11_13h23.52.182;stroop_test;03.02.2023;59.9509242;2024-03-11 13h23.59.360344 +0100
;;;;;;;;rot;blue;b;0;;;;;;;;;1;8;20;2;151.2283151;;;;;;;;;;;;;;;;;151.2135481;151.3282891;152.1280031;152.1121072;;;;;;;;;;;;;;;;;;;;;;;;;;;;;;;;;;;152.1121384;152.1280031;152.1280031;152.5292241;b;1;0.3868474;None;;;;sub-871355;1;2024-03-11_13h23.52.182;stroop_test;03.02.2023;59.9509242;2024-03-11 13h23.59.360344 +0100
;;;;;;;;gelb;red;r;0;;;;;;;;;1;9;21;8;152.5445444;;;;;;;;;;;;;;;;;152.5303749;153.7447184;154.5441964;154.5284901;;;;;;;;;;;;;;;;;;;;;;;;;;;;;;;;;;;154.5285228;154.5441964;154.5441964;154.9618299;r;1;0.4091069;None;;;;sub-871355;1;2024-03-11_13h23.52.182;stroop_test;03.02.2023;59.9509242;2024-03-11 13h23.59.360344 +0100
;;;;;;;;blau;blue;b;1;;;;;;;;;1;10;22;6;154.9772928;;;;;;;;;;;;;;;;;154.9630582;156.1771857;156.9771262;156.9609797;;;;;;;;;;;;;;;;;;;;;;;;;;;;;;;;;;;156.9610126;156.9771262;156.9771262;157.428945;b;1;0.4377529;None;;;;sub-871355;1;2024-03-11_13h23.52.182;stroop_test;03.02.2023;59.9509242;2024-03-11 13h23.59.360344 +0100
;;;;;;;;gelb;yellow;g;1;;;;;;;;;1;11;23;11;157.4434731;;;;;;;;;;;;;;;;;157.4300197;157.5438527;158.343593;158.3276362;;;;;;;;;;;;;;;;;;;;;;;;;;;;;;;;;;;158.3276679;158.343593;158.343593;158.7943016;g;1;0.4341298;None;;;;sub-871355;1;2024-03-11_13h23.52.182;stroop_test;03.02.2023;59.9509242;2024-03-11 13h23.59.360344 +0100
;;;;;;;;blau;yellow;g;0;;;;;;;;;2;0;24;7;158.8099016;;;;;;;;;;;;;;;;;158.7954992;159.1597033;159.9596801;159.9439206;;;;;;;;;;;;;;;;;;;;;;;;;;;;;;;;;;;159.9439521;159.9596801;159.9596801;160.3610133;g;1;0.3920593;None;;;;sub-871355;1;2024-03-11_13h23.52.182;stroop_test;03.02.2023;59.9509242;2024-03-11 13h23.59.360344 +0100
;;;;;;;;rot;red;r;1;;;;;;;;;2;1;25;0;160.3761135;;;;;;;;;;;;;;;;;160.3622019;160.7262394;161.526211;161.5100005;;;;;;;;;;;;;;;;;;;;;;;;;;;;;;;;;;;161.5100408;161.526211;161.526211;161.9940745;r;1;0.4537056;None;;;;sub-871355;1;2024-03-11_13h23.52.182;stroop_test;03.02.2023;59.9509242;2024-03-11 13h23.59.360344 +0100
;;;;;;;;rot;red;r;1;;;;;;;;;2;2;26;1;162.0090033;;;;;;;;;;;;;;;;;161.9952544;162.8089207;163.6088927;163.5935752;;;;;;;;;;;;;;;;;;;;;;;;;;;;;;;;;;;163.5936074;163.6088927;163.6088927;164.0100128;r;1;0.3952908;None;;;;sub-871355;1;2024-03-11_13h23.52.182;stroop_test;03.02.2023;59.9509242;2024-03-11 13h23.59.360344 +0100
;;;;;;;;rot;blue;b;0;;;;;;;;;2;3;27;2;164.0253324;;;;;;;;;;;;;;;;;164.0111824;164.1257385;164.925306;164.9092897;;;;;;;;;;;;;;;;;;;;;;;;;;;;;;;;;;;164.9093229;164.925306;164.925306;165.3436931;r;0;0.4163691;None;;;;sub-871355;1;2024-03-11_13h23.52.182;stroop_test;03.02.2023;59.9509242;2024-03-11 13h23.59.360344 +0100
;;;;;;;;blau;blue;b;1;;;;;;;;;2;4;28;5;165.3581681;;;;;;;;;;;;;;;;;165.3448872;165.7083451;166.5082523;166.4925092;;;;;;;;;;;;;;;;;;;;;;;;;;;;;;;;;;;166.4925503;166.5082523;166.5082523;166.9096634;b;1;0.3959453;None;;;;sub-871355;1;2024-03-11_13h23.52.182;stroop_test;03.02.2023;59.9509242;2024-03-11 13h23.59.360344 +0100
;;;;;;;;blau;red;r;0;;;;;;;;;2;5;29;4;166.924795;;;;;;;;;;;;;;;;;166.9108181;168.1249654;168.9246465;168.9084418;;;;;;;;;;;;;;;;;;;;;;;;;;;;;;;;;;;168.9084806;168.9246465;168.9246465;169.6088397;r;1;0.6704119;None;;;;sub-871355;1;2024-03-11_13h23.52.182;stroop_test;03.02.2023;59.9509242;2024-03-11 13h23.59.360344 +0100
;;;;;;;;rot;yellow;g;0;;;;;;;;;2;6;30;3;169.6242391;;;;;;;;;;;;;;;;;169.6100019;169.7244299;170.5243331;170.5084268;;;;;;;;;;;;;;;;;;;;;;;;;;;;;;;;;;;170.5084719;170.5243331;170.5243331;171.0421582;g;1;0.5027746;None;;;;sub-871355;1;2024-03-11_13h23.52.182;stroop_test;03.02.2023;59.9509242;2024-03-11 13h23.59.360344 +0100
;;;;;;;;gelb;red;r;0;;;;;;;;;2;7;31;8;171.0572045;;;;;;;;;;;;;;;;;171.0434108;171.8572196;172.6569819;172.6412294;;;;;;;;;;;;;;;;;;;;;;;;;;;;;;;;;;;172.6412604;172.6569819;172.6569819;173.1576558;r;1;0.4852538;None;;;;sub-871355;1;2024-03-11_13h23.52.182;stroop_test;03.02.2023;59.9509242;2024-03-11 13h23.59.360344 +0100
;;;;;;;;gelb;yellow;g;1;;;;;;;;;2;8;32;10;173.1735386;;;;;;;;;;;;;;;;;173.1587285;174.3734825;175.1732368;175.1575375;;;;;;;;;;;;;;;;;;;;;;;;;;;;;;;;;;;175.1575702;175.1732368;175.1732368;175.6585015;g;1;0.4834016;None;;;;sub-871355;1;2024-03-11_13h23.52.182;stroop_test;03.02.2023;59.9509242;2024-03-11 13h23.59.360344 +0100
;;;;;;;;gelb;blue;b;0;;;;;;;;;2;9;33;9;175.6729192;;;;;;;;;;;;;;;;;175.6597036;176.4728847;177.272837;177.2566954;;;;;;;;;;;;;;;;;;;;;;;;;;;;;;;;;;;177.2567265;177.272837;177.272837;177.7075739;b;1;0.4333068;None;;;;sub-871355;1;2024-03-11_13h23.52.182;stroop_test;03.02.2023;59.9509242;2024-03-11 13h23.59.360344 +0100
;;;;;;;;gelb;yellow;g;1;;;;;;;;;2;10;34;11;177.7224486;;;;;;;;;;;;;;;;;177.7087051;178.0727228;178.8724003;178.8565582;;;;;;;;;;;;;;;;;;;;;;;;;;;;;;;;;;;178.8565993;178.8724003;178.8724003;179.3566909;g;1;0.4725513;None;;;;sub-871355;1;2024-03-11_13h23.52.182;stroop_test;03.02.2023;59.9509242;2024-03-11 13h23.59.360344 +0100
;;;;;;;;blau;blue;b;1;;;;;;;;;2;11;35;6;179.3737213;;;;;;;;;;;;;;;;;179.3579068;180.1720588;180.9718896;180.9560703;;;;;;;;;;;;;;;;;;;;;;;;;;;;;;;;;;;180.956101;180.9718896;180.9718896;181.4230709;b;1;0.4364904;None;;;;sub-871355;1;2024-03-11_13h23.52.182;stroop_test;03.02.2023;59.9509242;2024-03-11 13h23.59.360344 +0100
;;;;;;;;rot;red;r;1;;;;;;;;;3;0;36;0;181.4383642;;;;;;;;;;;;;;;;;181.4242303;182.2383434;183.0382452;183.0224441;;;;;;;;;;;;;;;;;;;;;;;;;;;;;;;;;;;183.0224754;183.0382452;183.0382452;183.5393067;r;1;0.4899916;None;;;;sub-871355;1;2024-03-11_13h23.52.182;stroop_test;03.02.2023;59.9509242;2024-03-11 13h23.59.360344 +0100
;;;;;;;;gelb;yellow;g;1;;;;;;;;;3;1;37;10;183.5544359;;;;;;;;;;;;;;;;;183.5405474;183.6545779;184.4543866;184.4388034;;;;;;;;;;;;;;;;;;;;;;;;;;;;;;;;;;;184.4388354;184.4543866;184.4543866;184.9552328;g;1;0.4857903;None;;;;sub-871355;1;2024-03-11_13h23.52.182;stroop_test;03.02.2023;59.9509242;2024-03-11 13h23.59.360344 +0100
;;;;;;;;rot;blue;b;0;;;;;;;;;3;2;38;2;184.9711048;;;;;;;;;;;;;;;;;184.9562723;186.1709868;186.9706673;186.9545342;;;;;;;;;;;;;;;;;;;;;;;;;;;;;;;;;;;186.9545702;186.9706673;186.9706673;187.4052799;b;1;0.4289206;None;;;;sub-871355;1;2024-03-11_13h23.52.182;stroop_test;03.02.2023;59.9509242;2024-03-11 13h23.59.360344 +0100
;;;;;;;;blau;red;r;0;;;;;;;;;3;3;39;4;187.4204916;;;;;;;;;;;;;;;;;187.4064417;188.6203312;189.4199868;189.404201;;;;;;;;;;;;;;;;;;;;;;;;;;;;;;;;;;;189.404236;189.4199868;189.4199868;189.8042934;r;1;0.3697234;None;;;;sub-871355;1;2024-03-11_13h23.52.182;stroop_test;03.02.2023;59.9509242;2024-03-11 13h23.59.360344 +0100
;;;;;;;;blau;blue;b;1;;;;;;;;;3;4;40;5;189.8200444;;;;;;;;;;;;;;;;;189.8055373;190.1700419;190.9698405;190.9538117;;;;;;;;;;;;;;;;;;;;;;;;;;;;;;;;;;;190.9538437;190.9698405;190.9698405;191.4538072;b;1;0.4682838;None;;;;sub-871355;1;2024-03-11_13h23.52.182;stroop_test;03.02.2023;59.9509242;2024-03-11 13h23.59.360344 +0100
;;;;;;;;rot;red;r;1;;;;;;;;;3;5;41;1;191.4698555;;;;;;;;;;;;;;;;;191.4549308;191.5697769;192.3696372;192.3533493;;;;;;;;;;;;;;;;;;;;;;;;;;;;;;;;;;;192.3533788;192.3696372;192.3696372;193.0038133;r;1;0.6213701;None;;;;sub-871355;1;2024-03-11_13h23.52.182;stroop_test;03.02.2023;59.9509242;2024-03-11 13h23.59.360344 +0100
;;;;;;;;blau;yellow;g;0;;;;;;;;;3;6;42;7;193.0192648;;;;;;;;;;;;;;;;;193.0049618;193.3694498;194.1691764;194.1532362;;;;;;;;;;;;;;;;;;;;;;;;;;;;;;;;;;;194.153281;194.1691764;194.1691764;194.5370239;g;1;0.361921;None;;;;sub-871355;1;2024-03-11_13h23.52.182;stroop_test;03.02.2023;59.9509242;2024-03-11 13h23.59.360344 +0100
;;;;;;;;gelb;red;r;0;;;;;;;;;3;7;43;8;194.5520935;;;;;;;;;;;;;;;;;194.5381941;194.9021158;195.7019172;195.6863759;;;;;;;;;;;;;;;;;;;;;;;;;;;;;;;;;;;195.6864078;195.7019172;195.7019172;196.253746;r;1;0.5456167;None;;;;sub-871355;1;2024-03-11_13h23.52.182;stroop_test;03.02.2023;59.9509242;2024-03-11 13h23.59.360344 +0100
;;;;;;;;rot;yellow;g;0;;;;;;;;;3;8;44;3;196.2686029;;;;;;;;;;;;;;;;;196.255634;196.6188679;197.4185764;197.4023565;;;;;;;;;;;;;;;;;;;;;;;;;;;;;;;;;;;197.4023873;197.4185764;197.4185764;197.9195862;g;1;0.4871539;None;;;;sub-871355;1;2024-03-11_13h23.52.182;stroop_test;03.02.2023;59.9509242;2024-03-11 13h23.59.360344 +0100
;;;;;;;;gelb;yellow;g;1;;;;;;;;;3;9;45;11;197.9348315;;;;;;;;;;;;;;;;;197.9207484;198.0350921;198.8350333;198.8192258;;;;;;;;;;;;;;;;;;;;;;;;;;;;;;;;;;;198.8192643;198.8350333;198.8350333;199.5693491;g;1;0.7246569;None;;;;sub-871355;1;2024-03-11_13h23.52.182;stroop_test;03.02.2023;59.9509242;2024-03-11 13h23.59.360344 +0100
;;;;;;;;blau;blue;b;1;;;;;;;;;3;10;46;6;199.5846614;;;;;;;;;;;;;;;;;199.5705906;199.9345547;200.7345831;200.7186787;;;;;;;;;;;;;;;;;;;;;;;;;;;;;;;;;;;200.7187112;200.7345831;200.7345831;201.2021762;b;1;0.4588815;None;;;;sub-871355;1;2024-03-11_13h23.52.182;stroop_test;03.02.2023;59.9509242;2024-03-11 13h23.59.360344 +0100
;;;;;;;;gelb;blue;b;0;;;;;;;;;3;11;47;9;201.2175944;;;;;;;;;;;;;;;;;201.2033913;202.0175256;202.8174364;202.8014878;;;;;;;;;;;;;;;;;;;;;;;;;;;;;;;;;;;202.8015198;202.8174364;202.8174364;203.285547;b;1;0.4665198;None;;;;sub-871355;1;2024-03-11_13h23.52.182;stroop_test;03.02.2023;59.9509242;2024-03-11 13h23.59.360344 +0100
;;;;;;;;blau;blue;b;1;;;;;;;;;4;0;48;5;203.3001235;;;;;;;;;;;;;;;;;203.2867284;204.5002057;205.2997791;205.2842675;;;;;;;;;;;;;;;;;;;;;;;;;;;;;;;;;;;205.2843005;205.2997791;205.2997791;205.851094;b;1;0.5367871;None;;;;sub-871355;1;2024-03-11_13h23.52.182;stroop_test;03.02.2023;59.9509242;2024-03-11 13h23.59.360344 +0100
;;;;;;;;gelb;yellow;g;1;;;;;;;;;4;1;49;10;205.8665376;;;;;;;;;;;;;;;;;205.8522665;206.6665329;207.4663018;207.4503061;;;;;;;;;;;;;;;;;;;;;;;;;;;;;;;;;;;207.4503377;207.4663018;207.4663018;208.0679632;g;1;0.600206;None;;;;sub-871355;1;2024-03-11_13h23.52.182;stroop_test;03.02.2023;59.9509242;2024-03-11 13h23.59.360344 +0100
;;;;;;;;rot;yellow;g;0;;;;;;;;;4;2;50;3;208.0825573;;;;;;;;;;;;;;;;;208.0691616;208.4330224;209.2326477;209.2168586;;;;;;;;;;;;;;;;;;;;;;;;;;;;;;;;;;;209.2168916;209.2326477;209.2326477;209.7171983;b;0;0.4729467;None;;;;sub-871355;1;2024-03-11_13h23.52.182;stroop_test;03.02.2023;59.9509242;2024-03-11 13h23.59.360344 +0100
;;;;;;;;blau;blue;b;1;;;;;;;;;4;3;51;6;209.7322829;;;;;;;;;;;;;;;;;209.7183511;210.0824101;210.8821575;210.866451;;;;;;;;;;;;;;;;;;;;;;;;;;;;;;;;;;;210.8664826;210.8821575;210.8821575;211.3499968;b;1;0.4566337;None;;;;sub-871355;1;2024-03-11_13h23.52.182;stroop_test;03.02.2023;59.9509242;2024-03-11 13h23.59.360344 +0100
;;;;;;;;rot;red;r;1;;;;;;;;;4;4;52;1;211.3653658;;;;;;;;;;;;;;;;;211.351149;212.5654564;213.3650488;213.3487384;;;;;;;;;;;;;;;;;;;;;;;;;;;;;;;;;;;213.3487666;213.3650488;213.3650488;213.8164036;r;1;0.437979;None;;;;sub-871355;1;2024-03-11_13h23.52.182;stroop_test;03.02.2023;59.9509242;2024-03-11 13h23.59.360344 +0100
;;;;;;;;gelb;blue;b;0;;;;;;;;;4;5;53;9;213.8314943;;;;;;;;;;;;;;;;;213.8175785;213.9315705;214.731484;214.715705;;;;;;;;;;;;;;;;;;;;;;;;;;;;;;;;;;;214.7157364;214.731484;214.731484;215.2826907;b;1;0.5344098;None;;;;sub-871355;1;2024-03-11_13h23.52.182;stroop_test;03.02.2023;59.9509242;2024-03-11 13h23.59.360344 +0100
;;;;;;;;gelb;yellow;g;1;;;;;;;;;4;6;54;11;215.297892;;;;;;;;;;;;;;;;;215.2838284;215.6476997;216.4476;216.4319669;;;;;;;;;;;;;;;;;;;;;;;;;;;;;;;;;;;216.4319985;216.4476;216.4476;216.865613;g;1;0.4066746;None;;;;sub-871355;1;2024-03-11_13h23.52.182;stroop_test;03.02.2023;59.9509242;2024-03-11 13h23.59.360344 +0100
;;;;;;;;gelb;red;r;0;;;;;;;;;4;7;55;8;216.8810057;;;;;;;;;;;;;;;;;216.8667575;218.080836;218.8806151;218.8647601;;;;;;;;;;;;;;;;;;;;;;;;;;;;;;;;;;;218.8647911;218.8806151;218.8806151;219.2651511;r;1;0.368341;None;;;;sub-871355;1;2024-03-11_13h23.52.182;stroop_test;03.02.2023;59.9509242;2024-03-11 13h23.59.360344 +0100
;;;;;;;;rot;blue;b;0;;;;;;;;;4;8;56;2;219.2803796;;;;;;;;;;;;;;;;;219.2662968;220.4801239;221.2800175;221.264238;;;;;;;;;;;;;;;;;;;;;;;;;;;;;;;;;;;221.2642694;221.2800175;221.2800175;221.8645865;b;1;0.5793643;None;;;;sub-871355;1;2024-03-11_13h23.52.182;stroop_test;03.02.2023;59.9509242;2024-03-11 13h23.59.360344 +0100
;;;;;;;;rot;red;r;1;;;;;;;;;4;9;57;0;221.8799077;;;;;;;;;;;;;;;;;221.8657646;222.2298308;223.0298357;223.0139279;;;;;;;;;;;;;;;;;;;;;;;;;;;;;;;;;;;223.0139571;223.0298357;223.0298357;223.6146185;r;1;0.5737731;None;;;;sub-871355;1;2024-03-11_13h23.52.182;stroop_test;03.02.2023;59.9509242;2024-03-11 13h23.59.360344 +0100
;;;;;;;;blau;red;r;0;;;;;;;;;4;10;58;4;223.6296865;;;;;;;;;;;;;;;;;223.6158609;224.4292769;225.2291563;225.2136868;;;;;;;;;;;;;;;;;;;;;;;;;;;;;;;;;;;225.2137283;225.2291563;225.2291563;225.9802803;r;1;0.7336559;None;;;;sub-871355;1;2024-03-11_13h23.52.182;stroop_test;03.02.2023;59.9509242;2024-03-11 13h23.59.360344 +0100
;;;;;;;;blau;yellow;g;0;;;;;;;;;4;11;59;7;225.9956547;;;;;;;;;;;;;;;;;225.9814254;226.795535;227.5950413;227.5795176;;;;;;;;;;;;;;;;;;;;;;;;;;;;;;;;;;;227.5795586;227.5950413;227.5950413;228.0798695;g;1;0.4675066;None;;;;sub-871355;1;2024-03-11_13h23.52.182;stroop_test;03.02.2023;59.9509242;2024-03-11 13h23.59.360344 +0100
;;;;;;;;blau;blue;b;1;;;;;;;;;5;0;60;5;228.0950683;;;;;;;;;;;;;;;;;228.081054;228.8948268;229.6947303;229.6794645;;;;;;;;;;;;;;;;;;;;;;;;;;;;;;;;;;;229.6795025;229.6947303;229.6947303;230.0959988;b;1;0.3966332;None;;;;sub-871355;1;2024-03-11_13h23.52.182;stroop_test;03.02.2023;59.9509242;2024-03-11 13h23.59.360344 +0100
;;;;;;;;gelb;blue;b;0;;;;;;;;;5;1;61;9;230.1116014;;;;;;;;;;;;;;;;;230.0972576;231.3112923;232.1111357;232.0950285;;;;;;;;;;;;;;;;;;;;;;;;;;;;;;;;;;;232.0950604;232.1111357;232.1111357;232.6455046;b;1;0.520025;None;;;;sub-871355;1;2024-03-11_13h23.52.182;stroop_test;03.02.2023;59.9509242;2024-03-11 13h23.59.360344 +0100
;;;;;;;;blau;red;r;0;;;;;;;;;5;2;62;4;232.660962;;;;;;;;;;;;;;;;;232.6466542;232.7608536;233.5609022;233.5449302;;;;;;;;;;;;;;;;;;;;;;;;;;;;;;;;;;;233.5449723;233.5609022;233.5609022;234.0453462;r;1;0.4789125;None;;;;sub-871355;1;2024-03-11_13h23.52.182;stroop_test;03.02.2023;59.9509242;2024-03-11 13h23.59.360344 +0100
;;;;;;;;rot;blue;b;0;;;;;;;;;5;3;63;2;234.0607678;;;;;;;;;;;;;;;;;234.0465215;234.1606803;234.960458;234.9448758;;;;;;;;;;;;;;;;;;;;;;;;;;;;;;;;;;;234.9449109;234.960458;234.960458;235.4283866;b;1;0.4564007;None;;;;sub-871355;1;2024-03-11_13h23.52.182;stroop_test;03.02.2023;59.9509242;2024-03-11 13h23.59.360344 +0100
;;;;;;;;gelb;red;r;0;;;;;;;;;5;4;64;8;235.443376;;;;;;;;;;;;;;;;;235.4299364;236.6432478;237.4431858;237.4274906;;;;;;;;;;;;;;;;;;;;;;;;;;;;;;;;;;;237.4275225;237.4431858;237.4431858;237.8611629;r;1;0.4128884;None;;;;sub-871355;1;2024-03-11_13h23.52.182;stroop_test;03.02.2023;59.9509242;2024-03-11 13h23.59.360344 +0100
;;;;;;;;blau;yellow;g;0;;;;;;;;;5;5;65;7;237.876499;;;;;;;;;;;;;;;;;237.8622434;237.9764746;238.7763085;238.760545;;;;;;;;;;;;;;;;;;;;;;;;;;;;;;;;;;;238.7605765;238.7763085;238.7763085;239.2612758;g;1;0.4789015;None;;;;sub-871355;1;2024-03-11_13h23.52.182;stroop_test;03.02.2023;59.9509242;2024-03-11 13h23.59.360344 +0100
;;;;;;;;rot;yellow;g;0;;;;;;;;;5;6;66;3;239.2762962;;;;;;;;;;;;;;;;;239.2625357;239.3763751;240.1761455;240.1602273;;;;;;;;;;;;;;;;;;;;;;;;;;;;;;;;;;;240.1602571;240.1761455;240.1761455;240.6440627;g;1;0.4620525;None;;;;sub-871355;1;2024-03-11_13h23.52.182;stroop_test;03.02.2023;59.9509242;2024-03-11 13h23.59.360344 +0100
;;;;;;;;rot;red;r;1;;;;;;;;;5;7;67;0;240.6598292;;;;;;;;;;;;;;;;;240.645914;241.859013;242.6589531;242.6429563;;;;;;;;;;;;;;;;;;;;;;;;;;;;;;;;;;;242.6429895;242.6589531;242.6589531;243.2934757;r;1;0.6246818;None;;;;sub-871355;1;2024-03-11_13h23.52.182;stroop_test;03.02.2023;59.9509242;2024-03-11 13h23.59.360344 +0100
;;;;;;;;gelb;yellow;g;1;;;;;;;;;5;8;68;11;243.3086823;;;;;;;;;;;;;;;;;243.2947423;244.1086327;244.9083142;244.8922635;;;;;;;;;;;;;;;;;;;;;;;;;;;;;;;;;;;244.8922948;244.9083142;244.9083142;245.3597079;g;1;0.4437904;None;;;;sub-871355;1;2024-03-11_13h23.52.182;stroop_test;03.02.2023;59.9509242;2024-03-11 13h23.59.360344 +0100
;;;;;;;;rot;red;r;1;;;;;;;;;5;9;69;1;245.3750612;;;;;;;;;;;;;;;;;245.3608678;246.1748091;246.9746895;246.9587491;;;;;;;;;;;;;;;;;;;;;;;;;;;;;;;;;;;246.9587805;246.9746895;246.9746895;247.475657;r;1;0.4921945;None;;;;sub-871355;1;2024-03-11_13h23.52.182;stroop_test;03.02.2023;59.9509242;2024-03-11 13h23.59.360344 +0100
;;;;;;;;gelb;yellow;g;1;;;;;;;;;5;10;70;10;247.4909452;;;;;;;;;;;;;;;;;247.4768797;247.5744347;248.3744014;248.3583457;;;;;;;;;;;;;;;;;;;;;;;;;;;;;;;;;;;248.3583769;248.3744014;248.3744014;248.7760088;g;1;0.400012;None;;;;sub-871355;1;2024-03-11_13h23.52.182;stroop_test;03.02.2023;59.9509242;2024-03-11 13h23.59.360344 +0100
;;;;;;;;blau;blue;b;1;;;;;;;;;5;11;71;6;248.7906514;;;;;;;;;;;;;;;;;248.7770408;248.8908806;249.6905998;249.6748958;;;;;;;;;;;;;;;;;;;;;;;;;;;;;;;;;;;249.6749284;249.6905998;249.6905998;250.1419204;b;1;0.4409627;None;;;;sub-871355;1;2024-03-11_13h23.52.182;stroop_test;03.02.2023;59.9509242;2024-03-11 13h23.59.360344 +0100
;;;;;;;;blau;red;r;0;;;;;;;;;6;0;72;4;250.1572104;;;;;;;;;;;;;;;;;250.1430625;250.5072727;251.3070622;251.2911964;;;;;;;;;;;;;;;;;;;;;;;;;;;;;;;;;;;251.291228;251.3070622;251.3070622;251.7915853;r;1;0.473373;None;;;;sub-871355;1;2024-03-11_13h23.52.182;stroop_test;03.02.2023;59.9509242;2024-03-11 13h23.59.360344 +0100
;;;;;;;;gelb;red;r;0;;;;;;;;;6;1;73;8;251.8067648;;;;;;;;;;;;;;;;;251.7928806;253.0066327;253.806531;253.790514;;;;;;;;;;;;;;;;;;;;;;;;;;;;;;;;;;;253.790546;253.806531;253.806531;254.1744916;r;1;0.3632845;None;;;;sub-871355;1;2024-03-11_13h23.52.182;stroop_test;03.02.2023;59.9509242;2024-03-11 13h23.59.360344 +0100
;;;;;;;;rot;yellow;g;0;;;;;;;;;6;2;74;3;254.1895833;;;;;;;;;;;;;;;;;254.1756715;255.3892615;256.189097;256.1737384;;;;;;;;;;;;;;;;;;;;;;;;;;;;;;;;;;;256.1737734;256.189097;256.189097;256.5403683;g;1;0.3408414;None;;;;sub-871355;1;2024-03-11_13h23.52.182;stroop_test;03.02.2023;59.9509242;2024-03-11 13h23.59.360344 +0100
;;;;;;;;gelb;yellow;g;1;;;;;;;;;6;3;75;11;256.5559782;;;;;;;;;;;;;;;;;256.5415239;256.9059;257.7056886;257.6895023;;;;;;;;;;;;;;;;;;;;;;;;;;;;;;;;;;;257.6895334;257.7056886;257.7056886;258.1403935;g;1;0.4172569;None;;;;sub-871355;1;2024-03-11_13h23.52.182;stroop_test;03.02.2023;59.9509242;2024-03-11 13h23.59.360344 +0100
;;;;;;;;gelb;blue;b;0;;;;;;;;;6;4;76;9;258.1556684;;;;;;;;;;;;;;;;;258.1414847;258.9554713;259.7552795;259.7391227;;;;;;;;;;;;;;;;;;;;;;;;;;;;;;;;;;;259.7391538;259.7552795;259.7552795;260.1231904;b;1;0.3570837;None;;;;sub-871355;1;2024-03-11_13h23.52.182;stroop_test;03.02.2023;59.9509242;2024-03-11 13h23.59.360344 +0100
;;;;;;;;gelb;yellow;g;1;;;;;;;;;6;5;77;10;260.1383577;;;;;;;;;;;;;;;;;260.1244701;260.2382616;261.0379677;261.0223065;;;;;;;;;;;;;;;;;;;;;;;;;;;;;;;;;;;261.0223362;261.0379677;261.0379677;261.5393792;g;1;0.4966534;None;;;;sub-871355;1;2024-03-11_13h23.52.182;stroop_test;03.02.2023;59.9509242;2024-03-11 13h23.59.360344 +0100
;;;;;;;;blau;blue;b;1;;;;;;;;;6;6;78;6;261.5548294;;;;;;;;;;;;;;;;;261.5405402;261.6548684;262.4546395;262.4389549;;;;;;;;;;;;;;;;;;;;;;;;;;;;;;;;;;;262.4389914;262.4546395;262.4546395;262.9388486;b;1;0.4777371;None;;;;sub-871355;1;2024-03-11_13h23.52.182;stroop_test;03.02.2023;59.9509242;2024-03-11 13h23.59.360344 +0100
;;;;;;;;rot;blue;b;0;;;;;;;;;6;7;79;2;262.9547099;;;;;;;;;;;;;;;;;262.9400664;264.1541822;264.9541246;264.9381735;;;;;;;;;;;;;;;;;;;;;;;;;;;;;;;;;;;264.9382119;264.9541246;264.9541246;265.5384637;b;1;0.5680715;None;;;;sub-871355;1;2024-03-11_13h23.52.182;stroop_test;03.02.2023;59.9509242;2024-03-11 13h23.59.360344 +0100
;;;;;;;;blau;yellow;g;0;;;;;;;;;6;8;80;7;265.5538894;;;;;;;;;;;;;;;;;265.5396779;266.7538819;267.5536687;267.5375503;;;;;;;;;;;;;;;;;;;;;;;;;;;;;;;;;;;267.5375819;267.5536687;267.5536687;267.9379327;g;1;0.36809;None;;;;sub-871355;1;2024-03-11_13h23.52.182;stroop_test;03.02.2023;59.9509242;2024-03-11 13h23.59.360344 +0100
;;;;;;;;rot;red;r;1;;;;;;;;;6;9;81;1;267.9533971;;;;;;;;;;;;;;;;;267.939062;268.0536179;268.8530647;268.8372354;;;;;;;;;;;;;;;;;;;;;;;;;;;;;;;;;;;268.8372757;268.8530647;268.8530647;269.2210845;r;1;0.3624228;None;;;;sub-871355;1;2024-03-11_13h23.52.182;stroop_test;03.02.2023;59.9509242;2024-03-11 13h23.59.360344 +0100
;;;;;;;;rot;red;r;1;;;;;;;;;6;10;82;0;269.2364747;;;;;;;;;;;;;;;;;269.2222423;270.0361128;270.8359594;270.8203174;;;;;;;;;;;;;;;;;;;;;;;;;;;;;;;;;;;270.8203488;270.8359594;270.8359594;271.437403;r;1;0.5992012;None;;;;sub-871355;1;2024-03-11_13h23.52.182;stroop_test;03.02.2023;59.9509242;2024-03-11 13h23.59.360344 +0100
;;;;;;;;blau;blue;b;1;;;;;;;;;6;11;83;5;271.4528044;;;;;;;;;;;;;;;;;271.438536;272.2526373;273.0525272;273.0367454;;;;;;;;;;;;;;;;;;;;;;;;;;;;;;;;;;;273.036781;273.0525272;273.0525272;273.5202262;b;1;0.4611282;None;;;;sub-871355;1;2024-03-11_13h23.52.182;stroop_test;03.02.2023;59.9509242;2024-03-11 13h23.59.360344 +0100
;;;;;;;;gelb;blue;b;0;;;;;;;;;7;0;84;9;273.5354782;;;;;;;;;;;;;;;;;273.5213692;274.7351787;275.5350366;275.5192616;;;;;;;;;;;;;;;;;;;;;;;;;;;;;;;;;;;275.5192911;275.5350366;275.5350366;275.9524263;b;1;0.403194;None;;;;sub-871355;1;2024-03-11_13h23.52.182;stroop_test;03.02.2023;59.9509242;2024-03-11 13h23.59.360344 +0100
;;;;;;;;blau;red;r;0;;;;;;;;;7;1;85;4;275.9682497;;;;;;;;;;;;;;;;;275.953226;277.1681429;277.9679508;277.9521557;;;;;;;;;;;;;;;;;;;;;;;;;;;;;;;;;;;277.952187;277.9679508;277.9679508;278.5358481;r;1;0.5556064;None;;;;sub-871355;1;2024-03-11_13h23.52.182;stroop_test;03.02.2023;59.9509242;2024-03-11 13h23.59.360344 +0100
;;;;;;;;gelb;yellow;g;1;;;;;;;;;7;2;86;10;278.5511596;;;;;;;;;;;;;;;;;278.5370199;279.3510326;280.1507001;280.134788;;;;;;;;;;;;;;;;;;;;;;;;;;;;;;;;;;;280.1348199;280.1507001;280.1507001;280.5526139;g;1;0.3885931;None;;;;sub-871355;1;2024-03-11_13h23.52.182;stroop_test;03.02.2023;59.9509242;2024-03-11 13h23.59.360344 +0100
;;;;;;;;rot;red;r;1;;;;;;;;;7;3;87;1;280.5676912;;;;;;;;;;;;;;;;;280.5537344;280.9174496;281.7171962;281.7013583;;;;;;;;;;;;;;;;;;;;;;;;;;;;;;;;;;;281.7013905;281.7171962;281.7171962;282.1850209;r;1;0.4641849;None;;;;sub-871355;1;2024-03-11_13h23.52.182;stroop_test;03.02.2023;59.9509242;2024-03-11 13h23.59.360344 +0100
;;;;;;;;blau;blue;b;1;;;;;;;;;7;4;88;5;282.2004532;;;;;;;;;;;;;;;;;282.1861773;283.400272;284.2001641;284.1836049;;;;;;;;;;;;;;;;;;;;;;;;;;;;;;;;;;;284.1836361;284.2001641;284.2001641;284.6847894;b;1;0.4711985;None;;;;sub-871355;1;2024-03-11_13h23.52.182;stroop_test;03.02.2023;59.9509242;2024-03-11 13h23.59.360344 +0100
;;;;;;;;blau;yellow;g;0;;;;;;;;;7;5;89;7;284.6998812;;;;;;;;;;;;;;;;;284.6864245;284.7998982;285.5997457;285.5838591;;;;;;;;;;;;;;;;;;;;;;;;;;;;;;;;;;;285.5839053;285.5997457;285.5997457;286.3675453;g;1;0.759861;None;;;;sub-871355;1;2024-03-11_13h23.52.182;stroop_test;03.02.2023;59.9509242;2024-03-11 13h23.59.360344 +0100
;;;;;;;;rot;blue;b;0;;;;;;;;;7;6;90;2;286.3826933;;;;;;;;;;;;;;;;;286.3687078;287.5823378;288.3822823;288.3664886;;;;;;;;;;;;;;;;;;;;;;;;;;;;;;;;;;;288.3665167;288.3822823;288.3822823;288.9003863;b;1;0.5166679;None;;;;sub-871355;1;2024-03-11_13h23.52.182;stroop_test;03.02.2023;59.9509242;2024-03-11 13h23.59.360344 +0100
;;;;;;;;rot;red;r;1;;;;;;;;;7;7;91;0;288.9157634;;;;;;;;;;;;;;;;;288.901505;290.1154925;290.9152664;290.8993947;;;;;;;;;;;;;;;;;;;;;;;;;;;;;;;;;;;290.8994256;290.9152664;290.9152664;291.3996762;r;1;0.4785314;None;;;;sub-871355;1;2024-03-11_13h23.52.182;stroop_test;03.02.2023;59.9509242;2024-03-11 13h23.59.360344 +0100
;;;;;;;;blau;blue;b;1;;;;;;;;;7;8;92;6;291.4150991;;;;;;;;;;;;;;;;;291.4008596;292.2150977;293.0148562;292.998934;;;;;;;;;;;;;;;;;;;;;;;;;;;;;;;;;;;292.998965;293.0148562;293.0148562;293.3826235;b;1;0.3590946;None;;;;sub-871355;1;2024-03-11_13h23.52.182;stroop_test;03.02.2023;59.9509242;2024-03-11 13h23.59.360344 +0100
;;;;;;;;gelb;yellow;g;1;;;;;;;;;7;9;93;11;293.3981378;;;;;;;;;;;;;;;;;293.3839549;293.4980925;294.2979069;294.2818212;;;;;;;;;;;;;;;;;;;;;;;;;;;;;;;;;;;294.2818515;294.2979069;294.2979069;294.7326816;g;1;0.4281419;None;;;;sub-871355;1;2024-03-11_13h23.52.182;stroop_test;03.02.2023;59.9509242;2024-03-11 13h23.59.360344 +0100
;;;;;;;;gelb;red;r;0;;;;;;;;;7;10;94;8;294.7476944;;;;;;;;;;;;;;;;;294.7339459;295.0975779;295.8974591;295.881545;;;;;;;;;;;;;;;;;;;;;;;;;;;;;;;;;;;295.8815776;295.8974591;295.8974591;296.315636;r;1;0.4127963;None;;;;sub-871355;1;2024-03-11_13h23.52.182;stroop_test;03.02.2023;59.9509242;2024-03-11 13h23.59.360344 +0100
;;;;;;;;rot;yellow;g;0;;;;;;;;;7;11;95;3;296.3305087;;;;;;;;;;;;;;;;;296.3169257;296.6803809;297.4804071;297.4647292;;;;;;;;;;;;;;;;;;;;;;;;;;;;;;;;;;;297.4647609;297.4804071;297.4804071;297.9318259;g;1;0.4418644;None;;;;sub-871355;1;2024-03-11_13h23.52.182;stroop_test;03.02.2023;59.9509242;2024-03-11 13h23.59.360344 +0100
;;;;;;;;blau;blue;b;1;;;;;;;;;8;0;96;5;297.9471507;;;;;;;;;;;;;;;;;297.9329483;299.1468576;299.9468148;299.9304943;;;;;;;;;;;;;;;;;;;;;;;;;;;;;;;;;;;299.9305275;299.9468148;299.9468148;300.2811949;b;1;0.3307153;None;;;;sub-871355;1;2024-03-11_13h23.52.182;stroop_test;03.02.2023;59.9509242;2024-03-11 13h23.59.360344 +0100
;;;;;;;;blau;blue;b;1;;;;;;;;;8;1;97;6;300.2965549;;;;;;;;;;;;;;;;;300.2828937;300.3965429;301.1963561;301.1807461;;;;;;;;;;;;;;;;;;;;;;;;;;;;;;;;;;;301.1807785;301.1963561;301.1963561;301.6314583;b;1;0.4333247;None;;;;sub-871355;1;2024-03-11_13h23.52.182;stroop_test;03.02.2023;59.9509242;2024-03-11 13h23.59.360344 +0100
;;;;;;;;gelb;yellow;g;1;;;;;;;;;8;2;98;10;301.6461381;;;;;;;;;;;;;;;;;301.6332409;302.8460102;303.6457849;303.6298407;;;;;;;;;;;;;;;;;;;;;;;;;;;;;;;;;;;303.6298715;303.6457849;303.6457849;304.2970367;g;1;0.649032;None;;;;sub-871355;1;2024-03-11_13h23.52.182;stroop_test;03.02.2023;59.9509242;2024-03-11 13h23.59.360344 +0100
;;;;;;;;blau;yellow;g;0;;;;;;;;;8;3;99;7;304.3124684;;;;;;;;;;;;;;;;;304.2981978;305.1121793;305.9120065;305.8962815;;;;;;;;;;;;;;;;;;;;;;;;;;;;;;;;;;;305.896314;305.9120065;305.9120065;306.3134901;g;1;0.3978716;None;;;;sub-871355;1;2024-03-11_13h23.52.182;stroop_test;03.02.2023;59.9509242;2024-03-11 13h23.59.360344 +0100
;;;;;;;;rot;red;r;1;;;;;;;;;8;4;100;1;306.3284095;;;;;;;;;;;;;;;;;306.3146254;306.4283737;307.2281954;307.2126416;;;;;;;;;;;;;;;;;;;;;;;;;;;;;;;;;;;307.2126764;307.2281954;307.2281954;307.8131113;r;1;0.5798223;None;;;;sub-871355;1;2024-03-11_13h23.52.182;stroop_test;03.02.2023;59.9509242;2024-03-11 13h23.59.360344 +0100
;;;;;;;;gelb;blue;b;0;;;;;;;;;8;5;101;9;307.8281874;;;;;;;;;;;;;;;;;307.8143764;308.6280973;309.4278395;309.4121751;;;;;;;;;;;;;;;;;;;;;;;;;;;;;;;;;;;309.4122039;309.4278395;309.4278395;309.8624325;b;1;0.4186566;None;;;;sub-871355;1;2024-03-11_13h23.52.182;stroop_test;03.02.2023;59.9509242;2024-03-11 13h23.59.360344 +0100
;;;;;;;;rot;red;r;1;;;;;;;;;8;6;102;0;309.877645;;;;;;;;;;;;;;;;;309.8635501;311.0774901;311.8772512;311.8615627;;;;;;;;;;;;;;;;;;;;;;;;;;;;;;;;;;;311.8615934;311.8772512;311.8772512;312.395332;r;1;0.5038703;None;;;;sub-871355;1;2024-03-11_13h23.52.182;stroop_test;03.02.2023;59.9509242;2024-03-11 13h23.59.360344 +0100
;;;;;;;;gelb;yellow;g;1;;;;;;;;;8;7;103;11;312.4106581;;;;;;;;;;;;;;;;;312.3968021;312.5105866;313.3104622;313.2946076;;;;;;;;;;;;;;;;;;;;;;;;;;;;;;;;;;;313.2946403;313.3104622;313.3104622;313.7284274;g;1;0.4144346;None;;;;sub-871355;1;2024-03-11_13h23.52.182;stroop_test;03.02.2023;59.9509242;2024-03-11 13h23.59.360344 +0100
;;;;;;;;rot;blue;b;0;;;;;;;;;8;8;104;2;313.7438221;;;;;;;;;;;;;;;;;313.7296449;314.5435456;315.3434973;315.3273077;;;;;;;;;;;;;;;;;;;;;;;;;;;;;;;;;;;315.3273514;315.3434973;315.3434973;315.8276578;b;1;0.4766804;None;;;;sub-871355;1;2024-03-11_13h23.52.182;stroop_test;03.02.2023;59.9509242;2024-03-11 13h23.59.360344 +0100
;;;;;;;;rot;yellow;g;0;;;;;;;;;8;9;105;3;315.8434269;;;;;;;;;;;;;;;;;315.8288302;316.6432519;317.4429268;317.4268862;;;;;;;;;;;;;;;;;;;;;;;;;;;;;;;;;;;317.4269186;317.4429268;317.4429268;318.0948642;r;0;0.6411299;None;;;;sub-871355;1;2024-03-11_13h23.52.182;stroop_test;03.02.2023;59.9509242;2024-03-11 13h23.59.360344 +0100
;;;;;;;;blau;red;r;0;;;;;;;;;8;10;106;4;318.1096054;;;;;;;;;;;;;;;;;318.0959576;318.4590991;319.2589336;319.242688;;;;;;;;;;;;;;;;;;;;;;;;;;;;;;;;;;;319.2427057;319.2589336;319.2589336;319.6430149;r;1;0.3716626;None;;;;sub-871355;1;2024-03-11_13h23.52.182;stroop_test;03.02.2023;59.9509242;2024-03-11 13h23.59.360344 +0100
;;;;;;;;gelb;red;r;0;;;;;;;;;8;11;107;8;319.6591277;;;;;;;;;;;;;;;;;319.6437776;319.7589232;320.558975;320.5433302;;;;;;;;;;;;;;;;;;;;;;;;;;;;;;;;;;;320.5433717;320.558975;320.558975;321.0266824;r;1;0.4654696;None;;;;sub-871355;1;2024-03-11_13h23.52.182;stroop_test;03.02.2023;59.9509242;2024-03-11 13h23.59.360344 +0100
;;;;;;;;blau;blue;b;1;;;;;;;;;9;0;108;6;321.0422318;;;;;;;;;;;;;;;;;321.0279229;321.8419205;322.6418618;322.625944;;;;;;;;;;;;;;;;;;;;;;;;;;;;;;;;;;;322.6259748;322.6418618;322.6418618;323.1261944;b;1;0.4823333;None;;;;sub-871355;1;2024-03-11_13h23.52.182;stroop_test;03.02.2023;59.9509242;2024-03-11 13h23.59.360344 +0100
;;;;;;;;rot;red;r;1;;;;;;;;;9;1;109;0;323.1415882;;;;;;;;;;;;;;;;;323.1273656;323.4917315;324.2916937;324.2758024;;;;;;;;;;;;;;;;;;;;;;;;;;;;;;;;;;;324.2758337;324.2916937;324.2916937;324.8593484;r;1;0.5599691;None;;;;sub-871355;1;2024-03-11_13h23.52.182;stroop_test;03.02.2023;59.9509242;2024-03-11 13h23.59.360344 +0100
;;;;;;;;gelb;red;r;0;;;;;;;;;9;2;110;8;324.8745767;;;;;;;;;;;;;;;;;324.8605297;325.2244671;326.0241063;326.0088467;;;;;;;;;;;;;;;;;;;;;;;;;;;;;;;;;;;326.0088908;326.0241063;326.0241063;326.5424977;r;1;0.5078723;None;;;;sub-871355;1;2024-03-11_13h23.52.182;stroop_test;03.02.2023;59.9509242;2024-03-11 13h23.59.360344 +0100
;;;;;;;;rot;red;r;1;;;;;;;;;9;3;111;1;326.5576194;;;;;;;;;;;;;;;;;326.543659;326.657594;327.457558;327.4415038;;;;;;;;;;;;;;;;;;;;;;;;;;;;;;;;;;;327.441537;327.457558;327.457558;327.9752776;r;1;0.5106252;None;;;;sub-871355;1;2024-03-11_13h23.52.182;stroop_test;03.02.2023;59.9509242;2024-03-11 13h23.59.360344 +0100
;;;;;;;;blau;red;r;0;;;;;;;;;9;4;112;4;327.9905968;;;;;;;;;;;;;;;;;327.976429;328.3406263;329.1405166;329.1245537;;;;;;;;;;;;;;;;;;;;;;;;;;;;;;;;;;;329.1245968;329.1405166;329.1405166;329.6248543;r;1;0.4806096;None;;;;sub-871355;1;2024-03-11_13h23.52.182;stroop_test;03.02.2023;59.9509242;2024-03-11 13h23.59.360344 +0100
;;;;;;;;rot;yellow;g;0;;;;;;;;;9;5;113;3;329.6403961;;;;;;;;;;;;;;;;;329.6260209;330.4402441;331.2399717;331.2240502;;;;;;;;;;;;;;;;;;;;;;;;;;;;;;;;;;;331.2240828;331.2399717;331.2399717;331.7579717;g;1;0.5048475;None;;;;sub-871355;1;2024-03-11_13h23.52.182;stroop_test;03.02.2023;59.9509242;2024-03-11 13h23.59.360344 +0100
;;;;;;;;blau;blue;b;1;;;;;;;;;9;6;114;5;331.7728275;;;;;;;;;;;;;;;;;331.7591313;332.5729688;333.372777;333.3570922;;;;;;;;;;;;;;;;;;;;;;;;;;;;;;;;;;;333.3571257;333.372777;333.372777;333.8578453;b;1;0.4830577;None;;;;sub-871355;1;2024-03-11_13h23.52.182;stroop_test;03.02.2023;59.9509242;2024-03-11 13h23.59.360344 +0100
;;;;;;;;blau;yellow;g;0;;;;;;;;;9;7;115;7;333.8725506;;;;;;;;;;;;;;;;;333.8590204;334.6724726;335.47222;335.456818;;;;;;;;;;;;;;;;;;;;;;;;;;;;;;;;;;;335.4568527;335.47222;335.47222;335.8570381;g;1;0.3767341;None;;;;sub-871355;1;2024-03-11_13h23.52.182;stroop_test;03.02.2023;59.9509242;2024-03-11 13h23.59.360344 +0100
;;;;;;;;gelb;yellow;g;1;;;;;;;;;9;8;116;11;335.8720378;;;;;;;;;;;;;;;;;335.8581706;337.0719787;337.8717705;337.8560386;;;;;;;;;;;;;;;;;;;;;;;;;;;;;;;;;;;337.8560702;337.8717705;337.8717705;338.3228147;g;1;0.4425242;None;;;;sub-871355;1;2024-03-11_13h23.52.182;stroop_test;03.02.2023;59.9509242;2024-03-11 13h23.59.360344 +0100
;;;;;;;;rot;blue;b;0;;;;;;;;;9;9;117;2;338.3385664;;;;;;;;;;;;;;;;;338.3239685;338.4385008;339.2384285;339.222373;;;;;;;;;;;;;;;;;;;;;;;;;;;;;;;;;;;339.2224039;339.2384285;339.2384285;339.6897018;b;1;0.4442878;None;;;;sub-871355;1;2024-03-11_13h23.52.182;stroop_test;03.02.2023;59.9509242;2024-03-11 13h23.59.360344 +0100
;;;;;;;;gelb;yellow;g;1;;;;;;;;;9;10;118;10;339.7047908;;;;;;;;;;;;;;;;;339.6909459;339.8048162;340.6047543;340.5890236;;;;;;;;;;;;;;;;;;;;;;;;;;;;;;;;;;;340.5890604;340.6047543;340.6047543;341.0223149;g;1;0.4097043;None;;;;sub-871355;1;2024-03-11_13h23.52.182;stroop_test;03.02.2023;59.9509242;2024-03-11 13h23.59.360344 +0100
;;;;;;;;gelb;blue;b;0;;;;;;;;;9;11;119;9;341.0377601;;;;;;;;;;;;;;;;;341.0235437;341.8378579;342.6374933;342.6214653;;;;;;;;;;;;;;;;;;;;;;;;;;;;;;;;;;;342.6214952;342.6374933;342.6374933;343.0891104;b;1;0.4412015;None;;;;sub-871355;1;2024-03-11_13h23.52.182;stroop_test;03.02.2023;59.9509242;2024-03-11 13h23.59.360344 +0100
;;;;;;;;;;;;;;;;;;;;;;;;;;;;;;;;;;;;;;;;;;;;;;;;;;;;;;;;;;;;;;;;;;;;;;;;;;;;;;;;;;;;;;;343.0900216;343.1041744;348.103476;;;;;;;
