wordCTK,colorCTK,corrAnsCTK,congruentCTK,wordPractice,colorPractice,corrAnsPractice,congruentPractice,word,color,corrAns,congruent,trials_CTK.thisRepN,trials_CTK.thisTrialN,trials_CTK.thisN,trials_CTK.thisIndex,trials_practice.thisRepN,trials_practice.thisTrialN,trials_practice.thisN,trials_practice.thisIndex,trials_test.thisRepN,trials_test.thisTrialN,trials_test.thisN,trials_test.thisIndex,thisRow.t,notes,instruction.started,instr_text.started,instr_image.started,instr_resp.started,instruction.stopped,instr_resp.keys,instr_resp.rt,instr_resp.duration,begin_color_to_key.started,instr_ctk.started,resp_ctk.started,begin_color_to_key.stopped,resp_ctk.keys,resp_ctk.rt,resp_ctk.duration,ITI.started,fixcross.started,fixcross.stopped,ITI.stopped,color_to_key_run.started,text_CTK.started,key_resp_CTK.started,color_to_key_run.stopped,key_resp_CTK.keys,key_resp_CTK.corr,key_resp_CTK.rt,key_resp_CTK.duration,begin_practice.started,practice_text.started,practice_resp.started,practice_text.stopped,begin_practice.stopped,practice_resp.keys,practice_resp.rt,practice_resp.duration,practice_run.started,stimulus_practice.started,respPractice.started,practice_run.stopped,respPractice.keys,respPractice.corr,respPractice.rt,respPractice.duration,practice_feedback.started,textFeedback.started,textFeedback.stopped,practice_feedback.stopped,begin_test.started,begin_test_text.started,begin_test_resp.started,begin_test.stopped,begin_test_resp.keys,begin_test_resp.rt,begin_test_resp.duration,test_run.started,text.started,key_resp.started,test_run.stopped,key_resp.keys,key_resp.corr,key_resp.rt,key_resp.duration,goodbye.started,textGoodbye.started,textGoodbye.stopped,goodbye.stopped,participant,session,date,expName,psychopyVersion,frameRate,expStart,
,,,,,,,,,,,,,,,,,,,,,,,,,,0.01079408300574869,0.05923987500136718,0.05923987500136718,0.05923987500136718,83.40749004200916,space,83.31399379199138,0.03279233301873319,,,,,,,,,,,,,,,,,,,,,,,,,,,,,,,,,,,,,,,,,,,,,,,,,,,,,,,,,,,df,001,2024-03-08_13h29.39.205,stroop_test,2023.2.3,None,2024-03-08 13h29.53.703293 +0100,
,,,,,,,,,,,,,,,,,,,,,,,,,,,,,,,,,,83.4075269169989,83.41964120802004,83.41964120802004,86.21463383300579,space,2.7841865830123425,0.006860458990558982,,,,,,,,,,,,,,,,,,,,,,,,,,,,,,,,,,,,,,,,,,,,,,,,,,,,df,001,2024-03-08_13h29.39.205,stroop_test,2023.2.3,None,2024-03-08 13h29.53.703293 +0100,
test,blue,b,1,,,,,,,,,0,0,0,2,,,,,,,,,86.23492524999892,,,,,,,,,,,,,,,,,86.2292416249984,87.4121318749967,88.21466895801132,88.20404170799884,88.20406929199817,88.69508600002155,88.69508600002155,90.41381120801088,b,1,1.7093445000064094,0.00660145899746567,,,,,,,,,,,,,,,,,,,,,,,,,,,,,,,,,,,,,,,,df,001,2024-03-08_13h29.39.205,stroop_test,2023.2.3,None,2024-03-08 13h29.53.703293 +0100,
test,yellow,g,1,,,,,,,,,0,1,1,1,,,,,,,,,90.42291845800355,,,,,,,,,,,,,,,,,90.41505120802321,91.61079087501275,92.40949241700582,92.40390379200107,92.40392562499619,92.89494883301086,92.89494883301086,94.35436541700619,g,1,1.4514183330175001,None,,,,,,,,,,,,,,,,,,,,,,,,,,,,,,,,,,,,,,,,df,001,2024-03-08_13h29.39.205,stroop_test,2023.2.3,None,2024-03-08 13h29.53.703293 +0100,
test,red,r,1,,,,,,,,,0,2,2,0,,,,,,,,,94.3639457920217,,,,,,,,,,,,,,,,,94.35529795801267,94.45366166700842,95.24197020800784,95.23675462501706,95.2367789580021,95.72809929199866,95.72809929199866,96.60447004201706,r,1,0.8671172499889508,None,,,,,,,,,,,,,,,,,,,,,,,,,,,,,,,,,,,,,,,,df,001,2024-03-08_13h29.39.205,stroop_test,2023.2.3,None,2024-03-08 13h29.53.703293 +0100,
test,red,r,1,,,,,,,,,1,0,3,0,,,,,,,,,96.61403633301961,,,,,,,,,,,,,,,,,96.60531500002253,96.7032159579976,97.49201433302369,97.48694391699973,97.4869653750211,97.97825708301389,97.97825708301389,99.23805920800078,r,1,1.248933000024408,0.009363791992655024,,,,,,,,,,,,,,,,,,,,,,,,,,,,,,,,,,,,,,,,df,001,2024-03-08_13h29.39.205,stroop_test,2023.2.3,None,2024-03-08 13h29.53.703293 +0100,
test,yellow,g,1,,,,,,,,,1,1,4,1,,,,,,,,,99.24472966699977,,,,,,,,,,,,,,,,,99.23895804199856,100.43658329200116,101.22608945801039,101.22073825000552,101.2207640420238,101.71037120799883,101.71037120799883,102.85362249999889,g,1,1.1351458750141319,0.004613583005266264,,,,,,,,,,,,,,,,,,,,,,,,,,,,,,,,,,,,,,,,df,001,2024-03-08_13h29.39.205,stroop_test,2023.2.3,None,2024-03-08 13h29.53.703293 +0100,
test,blue,b,1,,,,,,,,,1,2,5,2,,,,,,,,,102.86230183299631,,,,,,,,,,,,,,,,,102.8543350000109,103.19450558300014,103.99242166700424,103.9871680829965,103.98718858300708,104.477977750008,104.477977750008,105.08711570801097,b,1,0.6049798330059275,None,,,,,,,,,,,,,,,,,,,,,,,,,,,,,,,,,,,,,,,,df,001,2024-03-08_13h29.39.205,stroop_test,2023.2.3,None,2024-03-08 13h29.53.703293 +0100,
test,red,r,1,,,,,,,,,2,0,6,0,,,,,,,,,105.0961292500142,,,,,,,,,,,,,,,,,105.08798683300847,105.87733737501549,106.67629004199989,106.6707540420175,106.6707837920112,107.16084541700548,107.16084541700548,107.93747841700679,r,1,0.7708394160144962,None,,,,,,,,,,,,,,,,,,,,,,,,,,,,,,,,,,,,,,,,df,001,2024-03-08_13h29.39.205,stroop_test,2023.2.3,None,2024-03-08 13h29.53.703293 +0100,
test,blue,b,1,,,,,,,,,2,1,7,2,,,,,,,,,107.94685795801342,,,,,,,,,,,,,,,,,107.93832737501361,108.28685050000786,109.0762407919974,109.07068383300793,109.07071579201147,109.5606242500071,109.5606242500071,110.5606557080173,b,1,0.9944466669985559,None,,,,,,,,,,,,,,,,,,,,,,,,,,,,,,,,,,,,,,,,df,001,2024-03-08_13h29.39.205,stroop_test,2023.2.3,None,2024-03-08 13h29.53.703293 +0100,
test,yellow,g,1,,,,,,,,,2,2,8,1,,,,,,,,,110.58620200000587,,,,,,,,,,,,,,,,,110.56154691701522,111.36044000001857,112.15836712499731,112.15322429200751,112.15324883299763,112.64391587499995,112.64391587499995,113.1939571670082,g,1,0.5444530829845462,None,,,,,,,,,,,,,,,,,,,,,,,,,,,,,,,,,,,,,,,,df,001,2024-03-08_13h29.39.205,stroop_test,2023.2.3,None,2024-03-08 13h29.53.703293 +0100,
,,,,,,,,,,,,,,,,,,,,,,,,,,,,,,,,,,,,,,,,,,,,,,,,,,,,,113.19456970802275,113.20540312500088,113.20540312500088,118.20340020800359,144.3377872920246,space,31.12561841600109,None,,,,,,,,,,,,,,,,,,,,,,,,,,,,,,,,df,001,2024-03-08_13h29.39.205,stroop_test,2023.2.3,None,2024-03-08 13h29.53.703293 +0100,
,,,,gelb,red,r,0,,,,,,,,,0,0,0,6,,,,,144.36001625002245,,,,,,,,,,,,,,,,,144.3517781670089,144.68630349999876,145.480507958011,145.4701667080226,,,,,,,,,,,,,,,,,145.47019208301208,145.81131166699925,145.95936487501604,147.95407820801483,r,1,1.9862394999945536,None,147.9550396670238,147.97050391702214,148.95901108300313,148.95358445800957,,,,,,,,,,,,,,,,,,,,df,001,2024-03-08_13h29.39.205,stroop_test,2023.2.3,None,2024-03-08 13h29.53.703293 +0100,
,,,,blau,red,r,0,,,,,,,,,0,1,1,3,,,,,148.95901108300313,,,,,,,,,,,,,,,,,148.9540246250108,150.15217820802354,150.94731562500237,150.93699812502018,,,,,,,,,,,,,,,,,150.93702854201547,152.1275118330086,151.42491637502098,153.25468650000403,r,1,1.828400166996289,None,153.25529458301025,153.26557899999898,154.2592664580152,154.2536075420212,,,,,,,,,,,,,,,,,,,,df,001,2024-03-08_13h29.39.205,stroop_test,2023.2.3,None,2024-03-08 13h29.53.703293 +0100,
,,,,blau,yellow,g,0,,,,,,,,,0,2,2,5,,,,,154.2592664580152,,,,,,,,,,,,,,,,,154.2541584999999,154.60240516701015,155.39125658301055,155.3862403750245,,,,,,,,,,,,,,,,,155.3862640830048,155.72734300000593,155.87598541702027,157.0376726250106,g,1,1.1514824589830823,0.009102000010898337,157.03826645799563,157.0487178750045,158.0428560830187,158.03720937500475,,,,,,,,,,,,,,,,,,,,df,001,2024-03-08_13h29.39.205,stroop_test,2023.2.3,None,2024-03-08 13h29.53.703293 +0100,
,,,,blau,blue,b,1,,,,,,,,,0,3,3,4,,,,,158.0428560830187,,,,,,,,,,,,,,,,,158.03774700002396,159.2363900830096,160.02534633301548,160.02010979200713,,,,,,,,,,,,,,,,,160.02013441702002,161.211090583005,160.50863491700147,162.2099781249999,b,1,1.6958860000013374,None,162.21058025001548,162.2212729169987,163.21972541700234,163.20964820802328,,,,,,,,,,,,,,,,,,,,df,001,2024-03-08_13h29.39.205,stroop_test,2023.2.3,None,2024-03-08 13h29.53.703293 +0100,
,,,,rot,blue,b,0,,,,,,,,,0,4,4,1,,,,,163.21972541700234,,,,,,,,,,,,,,,,,163.2100830830168,163.55993908300297,164.3523760829994,164.34291454200866,,,,,,,,,,,,,,,,,164.34293875002186,164.68609920801828,164.83577162501751,165.5877540000074,b,1,0.7426383330021054,0.008269250014564022,165.58823637501337,165.59735379202175,166.59290795802372,166.5870462919993,,,,,,,,,,,,,,,,,,,,df,001,2024-03-08_13h29.39.205,stroop_test,2023.2.3,None,2024-03-08 13h29.53.703293 +0100,
,,,,gelb,blue,b,0,,,,,,,,,0,5,5,7,,,,,166.59290795802372,,,,,,,,,,,,,,,,,166.58759329200257,166.93633158301236,167.72862704200088,167.7200447920186,,,,,,,,,,,,,,,,,167.72006954200333,168.06103237500065,168.20968533301493,169.31986912499997,b,1,1.104078208009014,None,169.32046766701387,169.33102362501086,170.3249027080019,170.319639207999,,,,,,,,,,,,,,,,,,,,df,001,2024-03-08_13h29.39.205,stroop_test,2023.2.3,None,2024-03-08 13h29.53.703293 +0100,
,,,,rot,yellow,g,0,,,,,,,,,0,6,6,2,,,,,170.3249027080019,,,,,,,,,,,,,,,,,170.32006620801985,171.51044987500063,172.31124862501747,172.30326800001785,,,,,,,,,,,,,,,,,172.30329216702376,173.4944750420109,172.79125100001693,174.74360100002377,g,1,1.9470272499893326,None,174.74420220800675,174.75492129201302,175.75297220802167,175.7436180000077,,,,,,,,,,,,,,,,,,,,df,001,2024-03-08_13h29.39.205,stroop_test,2023.2.3,None,2024-03-08 13h29.53.703293 +0100,
,,,,gelb,yellow,g,1,,,,,,,,,0,7,7,8,,,,,175.75297220802167,,,,,,,,,,,,,,,,,175.7441691250133,176.94358316701255,177.744853125012,177.73682587500662,,,,,,,,,,,,,,,,,177.73685204199865,178.92696908299695,178.2255426250049,180.303253125021,g,1,2.0729747919831425,None,180.30386041701422,180.31404079200001,181.30801833301666,181.30285204201937,,,,,,,,,,,,,,,,,,,,df,001,2024-03-08_13h29.39.205,stroop_test,2023.2.3,None,2024-03-08 13h29.53.703293 +0100,
,,,,rot,red,r,1,,,,,,,,,0,8,8,0,,,,,181.30801833301666,,,,,,,,,,,,,,,,,181.3032892080082,182.49443758302368,183.29557862502406,183.2868026670185,,,,,,,,,,,,,,,,,183.28683741702116,184.47691950001172,183.7753725000075,185.83708225001465,r,1,2.0516226660110988,None,185.8377292920195,185.84522991700214,186.84179654202308,186.8365070830041,,,,,,,,,,,,,,,,,,,,df,001,2024-03-08_13h29.39.205,stroop_test,2023.2.3,None,2024-03-08 13h29.53.703293 +0100,
,,,,blau,red,r,0,,,,,,,,,1,0,9,3,,,,,186.84179654202308,,,,,,,,,,,,,,,,,186.8369317500037,188.0361843330029,188.82800125001813,188.81998233302147,,,,,,,,,,,,,,,,,188.82000716699986,190.01123291702243,189.30795854202006,191.48690454202006,r,1,2.1744917079922743,None,191.48749712499557,191.49756441701902,192.49242829199648,192.48679887500475,,,,,,,,,,,,,,,,,,,,df,001,2024-03-08_13h29.39.205,stroop_test,2023.2.3,None,2024-03-08 13h29.53.703293 +0100,
,,,,gelb,red,r,0,,,,,,,,,1,1,10,6,,,,,192.49242829199648,,,,,,,,,,,,,,,,,192.48734054202214,193.6861251250084,194.478629833,194.46998541700304,,,,,,,,,,,,,,,,,194.47000945801847,195.66094945801888,194.95798325000214,196.82993624999654,r,1,1.8623355829913635,0.0057718330062925816,196.83055229199817,196.83859895801288,197.83619308299967,197.82614345801994,,,,,,,,,,,,,,,,,,,,df,001,2024-03-08_13h29.39.205,stroop_test,2023.2.3,None,2024-03-08 13h29.53.703293 +0100,
,,,,rot,yellow,g,0,,,,,,,,,1,2,11,2,,,,,197.83619308299967,,,,,,,,,,,,,,,,,197.82658212500974,199.0269301670196,199.8192089580116,199.81003054202301,,,,,,,,,,,,,,,,,199.81005404199823,201.0099883750081,200.30809204201796,202.1198335000081,g,1,1.8070837080013007,None,202.12042387502152,202.13072529202327,203.1256263749965,203.1200305420207,,,,,,,,,,,,,,,,,,,,df,001,2024-03-08_13h29.39.205,stroop_test,2023.2.3,None,2024-03-08 13h29.53.703293 +0100,
,,,,rot,blue,b,0,,,,,,,,,1,3,12,1,,,,,203.1256263749965,,,,,,,,,,,,,,,,,203.1205774580012,203.21063508299994,204.00756620801985,204.00271645802422,,,,,,,,,,,,,,,,,204.0027400830004,204.0939478329965,204.49222245800775,204.7036190830113,b,1,0.2065543329808861,None,204.70421408300172,204.7145155830076,205.7092375830107,205.70352487501805,,,,,,,,,,,,,,,,,,,,df,001,2024-03-08_13h29.39.205,stroop_test,2023.2.3,None,2024-03-08 13h29.53.703293 +0100,
,,,,blau,blue,b,1,,,,,,,,,1,4,13,4,,,,,205.7092375830107,,,,,,,,,,,,,,,,,205.704053458001,206.9028025830048,207.69348041701596,207.68657454202184,,,,,,,,,,,,,,,,,207.68659658302204,208.8768897500122,208.17521437502,210.45343220801442,b,1,2.2741673749987967,None,210.45408208301524,210.46094854202238,211.45859850000124,211.45306966701173,,,,,,,,,,,,,,,,,,,,df,001,2024-03-08_13h29.39.205,stroop_test,2023.2.3,None,2024-03-08 13h29.53.703293 +0100,
,,,,gelb,yellow,g,1,,,,,,,,,1,5,14,8,,,,,211.45859850000124,,,,,,,,,,,,,,,,,211.45350312499795,211.55256900002132,212.344719042012,212.3365377500013,,,,,,,,,,,,,,,,,212.3365612080088,212.42765616701217,212.82532775000436,213.37025658300263,g,1,0.5363965420110617,None,213.3708497500047,213.38166129202,214.37564300000668,214.36997775000054,,,,,,,,,,,,,,,,,,,,df,001,2024-03-08_13h29.39.205,stroop_test,2023.2.3,None,2024-03-08 13h29.53.703293 +0100,
,,,,gelb,blue,b,0,,,,,,,,,1,6,15,7,,,,,214.37564300000668,,,,,,,,,,,,,,,,,214.370528792002,215.56928579200758,216.35836400001426,216.35295833300916,,,,,,,,,,,,,,,,,216.35298320802394,217.54346174999955,216.8422732920153,218.46044279201305,b,1,1.6155174159794115,None,218.46103649999714,218.47129375001532,219.46919637502288,219.45925533300033,,,,,,,,,,,,,,,,,,,,df,001,2024-03-08_13h29.39.205,stroop_test,2023.2.3,None,2024-03-08 13h29.53.703293 +0100,
,,,,rot,red,r,1,,,,,,,,,1,7,16,0,,,,,219.46919637502288,,,,,,,,,,,,,,,,,219.45969270801288,220.660412792,221.46117941700504,221.45302250000532,,,,,,,,,,,,,,,,,221.45304683301947,222.6446734170022,221.9415300830151,223.2767589169962,r,1,1.3323377919732593,None,223.2773778749979,223.28814458299894,224.2854038750229,224.27589312501368,,,,,,,,,,,,,,,,,,,,df,001,2024-03-08_13h29.39.205,stroop_test,2023.2.3,None,2024-03-08 13h29.53.703293 +0100,
,,,,blau,yellow,g,0,,,,,,,,,1,8,17,5,,,,,224.2854038750229,,,,,,,,,,,,,,,,,224.27634241699707,225.47685375000583,226.2782264170237,226.26958016701974,,,,,,,,,,,,,,,,,226.2696045000048,227.46018937500776,226.75803237501532,228.35355883301236,g,1,1.5877054170123301,None,228.35415437500342,228.3644989170134,229.3582507079991,229.35303379202378,,,,,,,,,,,,,,,,,,,,df,001,2024-03-08_13h29.39.205,stroop_test,2023.2.3,None,2024-03-08 13h29.53.703293 +0100,
,,,,blau,blue,b,1,,,,,,,,,2,0,18,4,,,,,229.3582507079991,,,,,,,,,,,,,,,,,229.35346933300025,230.55235683300998,231.34135145801702,231.33640000000014,,,,,,,,,,,,,,,,,231.33642383301049,232.52619729199796,231.8249377500033,232.98719404201256,b,1,1.1526794590172358,None,232.9878024579957,232.99800204200437,233.9920868750196,233.98649795801612,,,,,,,,,,,,,,,,,,,,df,001,2024-03-08_13h29.39.205,stroop_test,2023.2.3,None,2024-03-08 13h29.53.703293 +0100,
,,,,blau,yellow,g,0,,,,,,,,,2,1,19,5,,,,,233.9920868750196,,,,,,,,,,,,,,,,,233.9870265829959,234.3356344580243,235.1248282919987,235.11958158301422,,,,,,,,,,,,,,,,,235.1196054580214,235.4604671249981,235.60898425002233,236.94239941702108,g,1,1.3289911250176374,None,236.9430024580215,236.95473845800734,237.95260087499628,237.94301504202303,,,,,,,,,,,,,,,,,,,,df,001,2024-03-08_13h29.39.205,stroop_test,2023.2.3,None,2024-03-08 13h29.53.703293 +0100,
,,,,rot,red,r,1,,,,,,,,,2,2,20,0,,,,,237.95260087499628,,,,,,,,,,,,,,,,,237.94345566700213,239.14361579201068,239.94424008301576,239.93625387499924,,,,,,,,,,,,,,,,,239.9362777500064,241.12739091701224,240.4251497920195,241.66281233300106,r,1,1.2281045840063598,0.004529291007202119,241.66345545800868,241.67107170799864,242.66916170800687,242.6589690420078,,,,,,,,,,,,,,,,,,,,df,001,2024-03-08_13h29.39.205,stroop_test,2023.2.3,None,2024-03-08 13h29.53.703293 +0100,
,,,,gelb,blue,b,0,,,,,,,,,2,3,21,7,,,,,242.66916170800687,,,,,,,,,,,,,,,,,242.65939554199576,243.46036050000112,244.26083441701485,244.25292808300583,,,,,,,,,,,,,,,,,244.25295233301586,245.04411137499847,244.7407291670097,246.25961675000144,b,1,1.5168268340057693,None,246.2602374170092,246.27121583299595,247.26911258301698,247.25949300001957,,,,,,,,,,,,,,,,,,,,df,001,2024-03-08_13h29.39.205,stroop_test,2023.2.3,None,2024-03-08 13h29.53.703293 +0100,
,,,,rot,yellow,g,0,,,,,,,,,2,4,22,2,,,,,247.26911258301698,,,,,,,,,,,,,,,,,247.2599291250226,247.60951520802337,248.41095158300595,248.4027890000143,,,,,,,,,,,,,,,,,248.40281137501006,248.74381070802337,248.89224304200616,250.0299360830104,g,1,1.1270042920077685,0.006994291994487867,250.03055270801997,250.03966850001598,251.0356703750149,251.02643720799824,,,,,,,,,,,,,,,,,,,,df,001,2024-03-08_13h29.39.205,stroop_test,2023.2.3,None,2024-03-08 13h29.53.703293 +0100,
,,,,gelb,yellow,g,1,,,,,,,,,2,5,23,8,,,,,251.0356703750149,,,,,,,,,,,,,,,,,251.0268706670031,251.37635054200655,252.17785633300082,252.1695090419962,,,,,,,,,,,,,,,,,252.16953524999553,252.51013262500055,252.6589523750008,253.41986620801617,g,1,0.7518085420015268,None,253.42045112501364,253.43076070799725,254.4244194170169,254.41916604200378,,,,,,,,,,,,,,,,,,,,df,001,2024-03-08_13h29.39.205,stroop_test,2023.2.3,None,2024-03-08 13h29.53.703293 +0100,
,,,,rot,blue,b,0,,,,,,,,,2,6,24,1,,,,,254.4244194170169,,,,,,,,,,,,,,,,,254.41958945800434,254.7690233750036,255.56231166701764,255.5527711250179,,,,,,,,,,,,,,,,,255.55279566699755,255.89393449999625,256.0424492500024,256.6938776250172,b,1,0.64718920798623,None,256.6945007080212,256.7049662080244,257.70237129201996,257.69263316699653,,,,,,,,,,,,,,,,,,,,df,001,2024-03-08_13h29.39.205,stroop_test,2023.2.3,None,2024-03-08 13h29.53.703293 +0100,
,,,,gelb,red,r,0,,,,,,,,,2,7,25,6,,,,,257.70237129201996,,,,,,,,,,,,,,,,,257.6930652500014,258.89272362500196,259.69431237500976,259.6861585830047,,,,,,,,,,,,,,,,,259.6861822500068,260.87832325001364,260.1747446670197,261.90326912500313,r,1,1.7232182500010822,None,261.90386212500744,261.91420120801195,262.90835225000046,262.90270233299816,,,,,,,,,,,,,,,,,,,,df,001,2024-03-08_13h29.39.205,stroop_test,2023.2.3,None,2024-03-08 13h29.53.703293 +0100,
,,,,blau,red,r,0,,,,,,,,,2,8,26,3,,,,,262.90835225000046,,,,,,,,,,,,,,,,,262.9032545830123,263.00200666699675,263.7942178329977,263.7860302920162,,,,,,,,,,,,,,,,,263.78605404202244,263.8765041670122,264.27528170801816,264.81929516702075,r,1,0.5353528750129044,None,264.8198875420203,264.83023787502316,265.8248669580207,265.8195154170098,,,,,,,,,,,,,,,,,,,,df,001,2024-03-08_13h29.39.205,stroop_test,2023.2.3,None,2024-03-08 13h29.53.703293 +0100,
,,,,rot,blue,b,0,,,,,,,,,3,0,27,1,,,,,265.8248669580207,,,,,,,,,,,,,,,,,265.81995933302096,265.90932249999605,266.70135766701424,266.69243229200947,,,,,,,,,,,,,,,,,266.6924600000202,266.7941891250084,267.18559054200887,268.0226268749975,r,0,0.8248386250052135,0.009463416994549334,268.0232624580094,268.0343742920086,269.02467924999655,269.0194988750154,,,,,,,,,,,,,,,,,,,,df,001,2024-03-08_13h29.39.205,stroop_test,2023.2.3,None,2024-03-08 13h29.53.703293 +0100,
,,,,gelb,red,r,0,,,,,,,,,3,1,28,6,,,,,269.02467924999655,,,,,,,,,,,,,,,,,269.0199474999972,269.81889079199755,270.61002445800113,270.60256458300864,,,,,,,,,,,,,,,,,270.6025840000075,271.39410433301236,271.09111887501786,272.4764449170034,r,1,1.3819607500045095,None,272.4770359999966,272.4906547080027,273.485543125018,273.4761913330003,,,,,,,,,,,,,,,,,,,,df,001,2024-03-08_13h29.39.205,stroop_test,2023.2.3,None,2024-03-08 13h29.53.703293 +0100,
,,,,gelb,blue,b,0,,,,,,,,,3,2,29,7,,,,,273.485543125018,,,,,,,,,,,,,,,,,273.4766399170039,274.676403999998,275.47533983300673,275.4695444170211,,,,,,,,,,,,,,,,,275.4695751249965,276.6592909580213,275.9581775420229,277.5198598749994,b,1,1.5563547090278007,None,277.5204598749988,277.53083004200016,278.52514333301224,278.5192816670169,,,,,,,,,,,,,,,,,,,,df,001,2024-03-08_13h29.39.205,stroop_test,2023.2.3,None,2024-03-08 13h29.53.703293 +0100,
,,,,blau,yellow,g,0,,,,,,,,,3,3,30,5,,,,,278.52514333301224,,,,,,,,,,,,,,,,,278.5198393750179,278.61884416700923,279.4105799579993,279.4025625420036,,,,,,,,,,,,,,,,,279.40258666701266,279.4934008330165,279.8917317080195,280.57949291702243,g,1,0.6784634579962585,0.0080556669854559,280.58003087501856,280.5875960420235,281.58547804201953,281.57606454202323,,,,,,,,,,,,,,,,,,,,df,001,2024-03-08_13h29.39.205,stroop_test,2023.2.3,None,2024-03-08 13h29.53.703293 +0100,
,,,,blau,red,r,0,,,,,,,,,3,4,31,3,,,,,281.58547804201953,,,,,,,,,,,,,,,,,281.5764867080143,281.9262842920143,282.7243820000149,282.7193163750053,,,,,,,,,,,,,,,,,282.7193407920131,283.05946766701527,283.21888941701036,283.8033921669994,r,1,0.5756444160069805,0.007645875011803582,283.80399566699634,283.8140598750033,284.8078126250184,284.8026377920178,,,,,,,,,,,,,,,,,,,,df,001,2024-03-08_13h29.39.205,stroop_test,2023.2.3,None,2024-03-08 13h29.53.703293 +0100,
,,,,blau,blue,b,1,,,,,,,,,3,5,32,4,,,,,284.8078126250184,,,,,,,,,,,,,,,,,284.8030599170015,286.0019465830119,286.7910233750008,286.7859166249982,,,,,,,,,,,,,,,,,286.78594062500633,287.9761625000101,287.2743636670057,288.886405792,b,1,1.6083476659841835,None,288.88699770800304,288.897347332997,289.89061154201045,289.8854959169985,,,,,,,,,,,,,,,,,,,,df,001,2024-03-08_13h29.39.205,stroop_test,2023.2.3,None,2024-03-08 13h29.53.703293 +0100,
,,,,rot,yellow,g,0,,,,,,,,,3,6,33,2,,,,,289.89061154201045,,,,,,,,,,,,,,,,,289.88592129200697,290.685338167008,291.47785404202295,291.46948825000436,,,,,,,,,,,,,,,,,291.46951750002336,292.2607103330083,291.95725241702166,293.79283587500686,g,1,1.829743457987206,None,293.7934401250095,293.8043446250085,294.80211079202127,294.7921394580044,,,,,,,,,,,,,,,,,,,,df,001,2024-03-08_13h29.39.205,stroop_test,2023.2.3,None,2024-03-08 13h29.53.703293 +0100,
,,,,rot,red,r,1,,,,,,,,,3,7,34,0,,,,,294.80211079202127,,,,,,,,,,,,,,,,,294.7925701250206,295.5924153329979,296.38535170801333,296.3761924999999,,,,,,,,,,,,,,,,,296.37621612500516,297.1769469169958,296.87460400001146,298.26220541700604,r,1,1.3784930830006488,0.0038650000060442835,298.262826375023,298.2708432080108,299.2687302500126,299.25878533301875,,,,,,,,,,,,,,,,,,,,df,001,2024-03-08_13h29.39.205,stroop_test,2023.2.3,None,2024-03-08 13h29.53.703293 +0100,
,,,,gelb,yellow,g,1,,,,,,,,,3,8,35,8,,,,,299.2687302500126,,,,,,,,,,,,,,,,,299.259203374997,299.3590862500132,300.16044487501495,300.1524946250138,,,,,,,,,,,,,,,,,300.15251920800074,300.24251462501707,300.6418651250133,301.2284466670244,g,1,0.5775669580034446,0.005831999995280057,301.22905995801557,301.23702333300025,302.23542300000554,302.2252174580062,,,,,,,,,,,,,,,,,,,,df,001,2024-03-08_13h29.39.205,stroop_test,2023.2.3,None,2024-03-08 13h29.53.703293 +0100,
,,,,gelb,yellow,g,1,,,,,,,,,4,0,36,8,,,,,302.23542300000554,,,,,,,,,,,,,,,,,302.2256400420156,302.3268465420115,303.1248427920218,303.11930587500683,,,,,,,,,,,,,,,,,303.11933208300616,303.20979133300716,303.60815116701997,303.86959950000164,g,1,0.2570068749773782,None,303.87017437501345,303.8804903750133,304.8752665420179,304.8693911670125,,,,,,,,,,,,,,,,,,,,df,001,2024-03-08_13h29.39.205,stroop_test,2023.2.3,None,2024-03-08 13h29.53.703293 +0100,
,,,,blau,red,r,0,,,,,,,,,4,1,37,3,,,,,304.8752665420179,,,,,,,,,,,,,,,,,304.8699323750043,304.9686271670216,305.76116262501455,305.7527018330002,,,,,,,,,,,,,,,,,305.75273191701854,305.84328191701206,306.25198375000036,306.68616174999624,r,1,0.42995012502069585,None,306.68677558301715,306.6960180000169,307.69109875001595,307.68582916702144,,,,,,,,,,,,,,,,,,,,df,001,2024-03-08_13h29.39.205,stroop_test,2023.2.3,None,2024-03-08 13h29.53.703293 +0100,
,,,,rot,red,r,1,,,,,,,,,4,2,38,0,,,,,307.69109875001595,,,,,,,,,,,,,,,,,307.68625995801995,308.4851333750121,309.27761300001293,309.2691155830107,,,,,,,,,,,,,,,,,309.26913929200964,310.05981391700334,309.75775483300094,310.6298724579974,r,1,0.8612175419984851,0.006125915999291465,310.6304907500162,310.6392112500034,311.63518508299603,311.6258450000023,,,,,,,,,,,,,,,,,,,,df,001,2024-03-08_13h29.39.205,stroop_test,2023.2.3,None,2024-03-08 13h29.53.703293 +0100,
,,,,blau,yellow,g,0,,,,,,,,,4,3,39,5,,,,,311.63518508299603,,,,,,,,,,,,,,,,,311.62626037502196,311.97698704199865,312.7767548330012,312.7686066250026,,,,,,,,,,,,,,,,,312.7686282079958,313.1098652080109,313.2580384580069,314.443342625018,g,1,1.1830581669928506,None,314.44392391701695,314.45396579199587,315.4518633330008,315.44146079200436,,,,,,,,,,,,,,,,,,,,df,001,2024-03-08_13h29.39.205,stroop_test,2023.2.3,None,2024-03-08 13h29.53.703293 +0100,
,,,,blau,blue,b,1,,,,,,,,,4,4,40,4,,,,,315.4518633330008,,,,,,,,,,,,,,,,,315.4418912920228,316.2433229169983,317.0407065420004,317.03573141701054,,,,,,,,,,,,,,,,,317.03575566702057,317.82641608300037,317.5245279170049,318.75868079200154,b,1,1.2297355000046082,None,318.7592720420216,318.77026733302046,319.76859283301746,319.75845083300374,,,,,,,,,,,,,,,,,,,,df,001,2024-03-08_13h29.39.205,stroop_test,2023.2.3,None,2024-03-08 13h29.53.703293 +0100,
,,,,gelb,blue,b,0,,,,,,,,,4,5,41,7,,,,,319.76859283301746,,,,,,,,,,,,,,,,,319.7588949580095,320.1103482080216,320.9106082080107,320.90223691699794,,,,,,,,,,,,,,,,,320.90226120801526,321.2435485419992,321.3919062920031,321.6694677080086,b,1,0.27259962499374524,None,321.67008183299913,321.680257333006,322.67508895799983,322.6691618330078,,,,,,,,,,,,,,,,,,,,df,001,2024-03-08_13h29.39.205,stroop_test,2023.2.3,None,2024-03-08 13h29.53.703293 +0100,
,,,,gelb,red,r,0,,,,,,,,,4,6,42,6,,,,,322.67508895799983,,,,,,,,,,,,,,,,,322.6696994579979,323.4685628330044,324.2575849170098,324.252342916996,,,,,,,,,,,,,,,,,324.2523650000221,325.04326608299743,324.7410727920069,325.86223004199564,r,1,1.1118612919817679,0.00463375000981614,325.86283445800655,325.8709779170167,326.86867854199954,326.8584330420126,,,,,,,,,,,,,,,,,,,,df,001,2024-03-08_13h29.39.205,stroop_test,2023.2.3,None,2024-03-08 13h29.53.703293 +0100,
,,,,rot,blue,b,0,,,,,,,,,4,7,43,1,,,,,326.86867854199954,,,,,,,,,,,,,,,,,326.8588742080028,328.05962216699845,328.8601157500234,328.852243833011,,,,,,,,,,,,,,,,,328.8522679580201,330.04289974999847,329.3402849580161,330.6859304580139,b,1,1.3402314170089085,None,330.6865922080178,330.69442041701404,331.69112629201845,331.68563675001496,,,,,,,,,,,,,,,,,,,,df,001,2024-03-08_13h29.39.205,stroop_test,2023.2.3,None,2024-03-08 13h29.53.703293 +0100,
,,,,rot,yellow,g,0,,,,,,,,,4,8,44,2,,,,,331.69112629201845,,,,,,,,,,,,,,,,,331.68608116701944,332.4844658750226,333.2740208330215,333.2689016670047,,,,,,,,,,,,,,,,,333.26892608302296,334.05878104199655,333.7580659580126,334.8193707500177,g,1,1.0511799170053564,None,334.8199865829956,334.8272048330109,335.8257512920245,335.818899417005,,,,,,,,,,,,,,,,,,,,df,001,2024-03-08_13h29.39.205,stroop_test,2023.2.3,None,2024-03-08 13h29.53.703293 +0100,
,,,,,,,,,,,,,,,,,,,,,,,,,,,,,,,,,,,,,,,,,,,,,,,,,,,,,,,,,,,,,,,,,,,,,,,,,335.8190096250037,335.8257512920245,335.8257512920245,338.7192939580127,space,2.8884810830058996,None,,,,,,,,,,,,,df,001,2024-03-08_13h29.39.205,stroop_test,2023.2.3,None,2024-03-08 13h29.53.703293 +0100,
,,,,,,,,gelb,yellow,g,1,,,,,,,,,0,0,0,8,338.7401925419981,,,,,,,,,,,,,,,,,338.7321515830117,339.5092558750184,340.3015278330131,340.29215820800164,,,,,,,,,,,,,,,,,,,,,,,,,,,,,,,,,,,,340.29218600000604,340.7936692920048,340.7936692920048,341.7758402500185,g,1,0.9765380000171717,None,,,,,df,001,2024-03-08_13h29.39.205,stroop_test,2023.2.3,None,2024-03-08 13h29.53.703293 +0100,
,,,,,,,,blau,red,r,0,,,,,,,,,0,1,1,3,341.78749095799867,,,,,,,,,,,,,,,,,341.7771355830191,342.1260326250049,342.92701616699924,342.91879458300536,,,,,,,,,,,,,,,,,,,,,,,,,,,,,,,,,,,,342.9188161670172,343.4093317500083,343.4093317500083,344.1752448330226,r,1,0.7610286670096684,None,,,,,df,001,2024-03-08_13h29.39.205,stroop_test,2023.2.3,None,2024-03-08 13h29.53.703293 +0100,
,,,,,,,,rot,red,r,1,,,,,,,,,0,2,2,0,344.1848527920083,,,,,,,,,,,,,,,,,344.1761537080165,344.97682112501934,345.7778608330118,345.76898329201504,,,,,,,,,,,,,,,,,,,,,,,,,,,,,,,,,,,,345.7690136670135,346.25989579199813,346.25989579199813,347.18656662502326,r,1,0.9253127920092084,None,,,,,df,001,2024-03-08_13h29.39.205,stroop_test,2023.2.3,None,2024-03-08 13h29.53.703293 +0100,
,,,,,,,,rot,blue,b,0,,,,,,,,,0,3,3,1,347.195477375004,,,,,,,,,,,,,,,,,347.18745875000604,347.9843150420056,348.77420016701217,348.76894249999896,,,,,,,,,,,,,,,,,,,,,,,,,,,,,,,,,,,,348.7689670000109,349.2595613330195,349.2595613330195,350.06185270802234,b,1,0.7930594999925233,0.004596374987158924,,,,,df,001,2024-03-08_13h29.39.205,stroop_test,2023.2.3,None,2024-03-08 13h29.53.703293 +0100,
,,,,,,,,rot,yellow,g,0,,,,,,,,,0,4,4,2,350.0844439170032,,,,,,,,,,,,,,,,,350.0628058750008,350.40901025000494,351.2073321250209,351.2021617499995,,,,,,,,,,,,,,,,,,,,,,,,,,,,,,,,,,,,351.2021867080184,351.69280083299964,351.69280083299964,352.2198034170142,g,1,0.517020874976879,None,,,,,df,001,2024-03-08_13h29.39.205,stroop_test,2023.2.3,None,2024-03-08 13h29.53.703293 +0100,
,,,,,,,,gelb,red,r,0,,,,,,,,,0,5,5,6,352.2293823750224,,,,,,,,,,,,,,,,,352.22069095799816,353.0183399170055,353.8106421249977,353.80199033301324,,,,,,,,,,,,,,,,,,,,,,,,,,,,,,,,,,,,353.8020177500148,354.2925973329984,354.2925973329984,354.9863643750141,r,1,0.6843600409920327,0.008264208998298272,,,,,df,001,2024-03-08_13h29.39.205,stroop_test,2023.2.3,None,2024-03-08 13h29.53.703293 +0100,
,,,,,,,,gelb,blue,b,0,,,,,,,,,0,6,6,7,354.9957485420164,,,,,,,,,,,,,,,,,354.98724962500273,355.784865499998,356.57402833300875,356.5687676250236,,,,,,,,,,,,,,,,,,,,,,,,,,,,,,,,,,,,356.5687925000093,357.0593199169962,357.0593199169962,358.4425927500124,b,1,1.3814342090045102,None,,,,,df,001,2024-03-08_13h29.39.205,stroop_test,2023.2.3,None,2024-03-08 13h29.53.703293 +0100,
,,,,,,,,blau,blue,b,1,,,,,,,,,0,7,7,4,358.45149529201444,,,,,,,,,,,,,,,,,358.4434817500005,358.54306395800086,359.34351775000687,359.33533975001774,,,,,,,,,,,,,,,,,,,,,,,,,,,,,,,,,,,,359.33536341701983,359.82638162499643,359.82638162499643,360.34244200002286,b,1,0.5110720839875285,None,,,,,df,001,2024-03-08_13h29.39.205,stroop_test,2023.2.3,None,2024-03-08 13h29.53.703293 +0100,
,,,,,,,,blau,yellow,g,0,,,,,,,,,0,8,8,5,360.3536692500056,,,,,,,,,,,,,,,,,360.3433485419955,360.6934827080113,361.4912939170026,361.4856723330158,,,,,,,,,,,,,,,,,,,,,,,,,,,,,,,,,,,,361.4857019170013,361.97616770802415,361.97616770802415,362.6750136250048,g,1,0.6969839579833206,None,,,,,df,001,2024-03-08_13h29.39.205,stroop_test,2023.2.3,None,2024-03-08 13h29.53.703293 +0100,
,,,,,,,,blau,red,r,0,,,,,,,,,1,0,9,3,362.6846685830096,,,,,,,,,,,,,,,,,362.67590662502334,363.0253294169961,363.81828308300464,363.8087415830232,,,,,,,,,,,,,,,,,,,,,,,,,,,,,,,,,,,,363.8087687920197,364.3090800420032,364.3090800420032,364.8368313749961,r,1,0.5261441250040662,None,,,,,df,001,2024-03-08_13h29.39.205,stroop_test,2023.2.3,None,2024-03-08 13h29.53.703293 +0100,
,,,,,,,,rot,yellow,g,0,,,,,,,,,1,1,10,2,364.84567083301954,,,,,,,,,,,,,,,,,364.83774495800026,365.6347049580072,366.42692379202344,366.4186547920108,,,,,,,,,,,,,,,,,,,,,,,,,,,,,,,,,,,,366.41867895799805,366.9100557080237,366.9100557080237,367.85281437501544,g,1,0.9413967500149738,None,,,,,df,001,2024-03-08_13h29.39.205,stroop_test,2023.2.3,None,2024-03-08 13h29.53.703293 +0100,
,,,,,,,,gelb,blue,b,0,,,,,,,,,1,2,11,7,367.86159258300904,,,,,,,,,,,,,,,,,367.8537285000202,368.20153500000015,368.99382808301016,368.98550720800995,,,,,,,,,,,,,,,,,,,,,,,,,,,,,,,,,,,,368.9855368749995,369.47581991701736,369.47581991701736,369.9191187079996,b,1,0.4372001250158064,None,,,,,df,001,2024-03-08_13h29.39.205,stroop_test,2023.2.3,None,2024-03-08 13h29.53.703293 +0100,
,,,,,,,,gelb,yellow,g,1,,,,,,,,,1,3,12,8,369.92852100002347,,,,,,,,,,,,,,,,,369.9200201250205,370.01820650001173,370.806674958003,370.8015017500147,,,,,,,,,,,,,,,,,,,,,,,,,,,,,,,,,,,,370.80152575002285,371.29262466699583,371.29262466699583,372.02619950001827,g,1,0.732224875013344,None,,,,,df,001,2024-03-08_13h29.39.205,stroop_test,2023.2.3,None,2024-03-08 13h29.53.703293 +0100,
,,,,,,,,blau,yellow,g,0,,,,,,,,,1,4,13,5,372.05102729200735,,,,,,,,,,,,,,,,,372.0270807920024,372.1260432920244,372.9276947080216,372.91881650002324,,,,,,,,,,,,,,,,,,,,,,,,,,,,,,,,,,,,372.91884604201186,373.40956941701006,373.40956941701006,374.0249572500179,g,1,0.6096373750187922,None,,,,,df,001,2024-03-08_13h29.39.205,stroop_test,2023.2.3,None,2024-03-08 13h29.53.703293 +0100,
,,,,,,,,blau,blue,b,1,,,,,,,,,1,5,14,4,374.03453583302326,,,,,,,,,,,,,,,,,374.0258574170002,374.1257359170122,374.9230675419967,374.91804716701154,,,,,,,,,,,,,,,,,,,,,,,,,,,,,,,,,,,,374.9180707920168,375.40867529201205,375.40867529201205,376.10838354201405,b,1,0.696018875023583,None,,,,,df,001,2024-03-08_13h29.39.205,stroop_test,2023.2.3,None,2024-03-08 13h29.53.703293 +0100,
,,,,,,,,rot,red,r,1,,,,,,,,,1,6,15,0,376.117858542013,,,,,,,,,,,,,,,,,376.1093078330159,376.2096023330232,377.01022541700513,377.00203595802304,,,,,,,,,,,,,,,,,,,,,,,,,,,,,,,,,,,,377.0020658750145,377.493273458007,377.493273458007,378.1585675420065,r,1,0.6597163749975152,None,,,,,df,001,2024-03-08_13h29.39.205,stroop_test,2023.2.3,None,2024-03-08 13h29.53.703293 +0100,
,,,,,,,,rot,blue,b,0,,,,,,,,,1,7,16,1,378.184221833013,,,,,,,,,,,,,,,,,378.15946104199975,378.5094932920183,379.3070060420141,379.30190525000216,,,,,,,,,,,,,,,,,,,,,,,,,,,,,,,,,,,,379.3019263330207,379.79183866700623,379.79183866700623,380.7860158330004,b,1,0.985876292019384,0.0071949999837670475,,,,,df,001,2024-03-08_13h29.39.205,stroop_test,2023.2.3,None,2024-03-08 13h29.53.703293 +0100,
,,,,,,,,gelb,red,r,0,,,,,,,,,1,8,17,6,380.7953232919972,,,,,,,,,,,,,,,,,380.7868996670004,380.88463487502304,381.6769401250058,381.66869099999894,,,,,,,,,,,,,,,,,,,,,,,,,,,,,,,,,,,,381.66871520801215,382.1596261250088,382.1596261250088,383.0458302080224,r,1,0.8755420419911388,0.0057051659969147295,,,,,df,001,2024-03-08_13h29.39.205,stroop_test,2023.2.3,None,2024-03-08 13h29.53.703293 +0100,
,,,,,,,,rot,yellow,g,0,,,,,,,,,2,0,18,2,383.05328258301597,,,,,,,,,,,,,,,,,383.04664537499775,383.84307008300675,384.64286362502025,384.63505666700075,,,,,,,,,,,,,,,,,,,,,,,,,,,,,,,,,,,,384.63507995801046,385.1259266670095,385.1259266670095,386.0689364169957,g,1,0.9384703750256449,None,,,,,df,001,2024-03-08_13h29.39.205,stroop_test,2023.2.3,None,2024-03-08 13h29.53.703293 +0100,
,,,,,,,,gelb,blue,b,0,,,,,,,,,2,1,19,7,386.0776541670202,,,,,,,,,,,,,,,,,386.0698269580025,386.86802195801283,387.6597620420216,387.6518189170165,,,,,,,,,,,,,,,,,,,,,,,,,,,,,,,,,,,,387.65184058301384,388.14227912502247,388.14227912502247,388.6592593330133,b,1,0.513812292017974,None,,,,,df,001,2024-03-08_13h29.39.205,stroop_test,2023.2.3,None,2024-03-08 13h29.53.703293 +0100,
,,,,,,,,gelb,yellow,g,1,,,,,,,,,2,2,20,8,388.6858603330038,,,,,,,,,,,,,,,,,388.66016141700675,388.75908079202054,389.5562254580145,389.5513440000068,,,,,,,,,,,,,,,,,,,,,,,,,,,,,,,,,,,,389.5513676670089,390.0425665829971,390.0425665829971,390.6021627500013,g,1,0.5496600840124302,None,,,,,df,001,2024-03-08_13h29.39.205,stroop_test,2023.2.3,None,2024-03-08 13h29.53.703293 +0100,
,,,,,,,,rot,blue,b,0,,,,,,,,,2,3,21,1,390.60753983299946,,,,,,,,,,,,,,,,,390.6029117080034,391.801251708006,392.5933127500175,392.58527912502177,,,,,,,,,,,,,,,,,,,,,,,,,,,,,,,,,,,,392.58530358300777,393.0762787919957,393.0762787919957,393.6423703750188,b,1,0.5645459170045797,None,,,,,df,001,2024-03-08_13h29.39.205,stroop_test,2023.2.3,None,2024-03-08 13h29.53.703293 +0100,
,,,,,,,,blau,yellow,g,0,,,,,,,,,2,4,22,5,393.6513113330002,,,,,,,,,,,,,,,,,393.6432661669969,394.84283908302314,395.6436518749979,395.63505641699885,,,,,,,,,,,,,,,,,,,,,,,,,,,,,,,,,,,,395.63507800002117,396.12685000000056,396.12685000000056,397.1951645000081,g,1,1.0588417910039425,0.005719417007640004,,,,,df,001,2024-03-08_13h29.39.205,stroop_test,2023.2.3,None,2024-03-08 13h29.53.703293 +0100,
,,,,,,,,gelb,red,r,0,,,,,,,,,2,5,23,6,397.2174510830082,,,,,,,,,,,,,,,,,397.19611000001896,397.99192662502173,398.79247695801314,398.7845336669998,,,,,,,,,,,,,,,,,,,,,,,,,,,,,,,,,,,,398.7845576670079,399.2760812920169,399.2760812920169,400.24497654201696,r,1,0.9591809159901459,0.004890209005679935,,,,,df,001,2024-03-08_13h29.39.205,stroop_test,2023.2.3,None,2024-03-08 13h29.53.703293 +0100,
,,,,,,,,rot,red,r,1,,,,,,,,,2,6,24,0,400.2674473329971,,,,,,,,,,,,,,,,,400.24589791701874,400.34241004200885,401.14321508302237,401.1350531670032,,,,,,,,,,,,,,,,,,,,,,,,,,,,,,,,,,,,401.1350773750164,401.6257710000209,401.6257710000209,402.33554125000956,r,1,0.7022960419999436,None,,,,,df,001,2024-03-08_13h29.39.205,stroop_test,2023.2.3,None,2024-03-08 13h29.53.703293 +0100,
,,,,,,,,blau,blue,b,1,,,,,,,,,2,7,25,4,402.34646650002105,,,,,,,,,,,,,,,,,402.33643504200154,402.6844281250087,403.47635612500017,403.46842195800855,,,,,,,,,,,,,,,,,,,,,,,,,,,,,,,,,,,,403.46844325002166,403.95933133299695,403.95933133299695,405.5253231250099,b,1,1.5608712079992983,None,,,,,df,001,2024-03-08_13h29.39.205,stroop_test,2023.2.3,None,2024-03-08 13h29.53.703293 +0100,
,,,,,,,,blau,red,r,0,,,,,,,,,2,8,26,3,405.5507514580095,,,,,,,,,,,,,,,,,405.52622504200554,405.8762846250029,406.6738310829969,406.6683626669983,,,,,,,,,,,,,,,,,,,,,,,,,,,,,,,,,,,,406.66839350000373,407.1598474580096,407.1598474580096,407.83646608301206,r,1,0.6749432499927934,None,,,,,df,001,2024-03-08_13h29.39.205,stroop_test,2023.2.3,None,2024-03-08 13h29.53.703293 +0100,
,,,,,,,,gelb,red,r,0,,,,,,,,,3,0,27,6,407.8462001250009,,,,,,,,,,,,,,,,,407.8373764170101,407.93462166702375,408.72632891702233,408.71836708299816,,,,,,,,,,,,,,,,,,,,,,,,,,,,,,,,,,,,408.7183930000174,409.2088973330101,409.2088973330101,409.91878166701645,r,1,0.7025332499761134,None,,,,,df,001,2024-03-08_13h29.39.205,stroop_test,2023.2.3,None,2024-03-08 13h29.53.703293 +0100,
,,,,,,,,blau,blue,b,1,,,,,,,,,3,1,28,4,409.92848587501794,,,,,,,,,,,,,,,,,409.9196804170206,410.01784237500397,410.81058358302107,410.80187862500316,,,,,,,,,,,,,,,,,,,,,,,,,,,,,,,,,,,,410.80190829202184,411.2917047080118,411.2917047080118,412.10126391702215,b,1,0.8047553329961374,None,,,,,df,001,2024-03-08_13h29.39.205,stroop_test,2023.2.3,None,2024-03-08 13h29.53.703293 +0100,
,,,,,,,,gelb,yellow,g,1,,,,,,,,,3,2,29,8,412.11078433299554,,,,,,,,,,,,,,,,,412.10217133301194,412.4426870419993,413.2432297920168,413.23450520800543,,,,,,,,,,,,,,,,,,,,,,,,,,,,,,,,,,,,413.23452625001664,413.72624795802403,413.72624795802403,414.4187732080172,g,1,0.6834403750253841,None,,,,,df,001,2024-03-08_13h29.39.205,stroop_test,2023.2.3,None,2024-03-08 13h29.53.703293 +0100,
,,,,,,,,rot,red,r,1,,,,,,,,,3,3,30,0,414.42858866701135,,,,,,,,,,,,,,,,,414.4196621250012,414.76785341699724,415.5594644170196,415.5515728330065,,,,,,,,,,,,,,,,,,,,,,,,,,,,,,,,,,,,415.5515965830127,416.04191904200707,416.04191904200707,416.7085839170031,r,1,0.6620390419848263,None,,,,,df,001,2024-03-08_13h29.39.205,stroop_test,2023.2.3,None,2024-03-08 13h29.53.703293 +0100,
,,,,,,,,gelb,blue,b,0,,,,,,,,,3,4,31,7,416.7342313330155,,,,,,,,,,,,,,,,,416.7094842920196,416.8084321670176,417.6089737500006,417.60109900002135,,,,,,,,,,,,,,,,,,,,,,,,,,,,,,,,,,,,417.6011214580212,418.09193070800393,418.09193070800393,418.7689818330109,b,1,0.6672294579911977,None,,,,,df,001,2024-03-08_13h29.39.205,stroop_test,2023.2.3,None,2024-03-08 13h29.53.703293 +0100,
,,,,,,,,blau,red,r,0,,,,,,,,,3,5,32,3,418.77835162502015,,,,,,,,,,,,,,,,,418.76989995801705,419.1177486250235,419.9090297080111,419.9009973750217,,,,,,,,,,,,,,,,,,,,,,,,,,,,,,,,,,,,419.9010187500098,420.392987625004,420.392987625004,421.11818575000507,r,1,0.7185227500158362,None,,,,,df,001,2024-03-08_13h29.39.205,stroop_test,2023.2.3,None,2024-03-08 13h29.53.703293 +0100,
,,,,,,,,rot,blue,b,0,,,,,,,,,3,6,33,1,421.1276709579979,,,,,,,,,,,,,,,,,421.1190707080241,421.90820637499564,422.7094424170209,422.70151300000725,,,,,,,,,,,,,,,,,,,,,,,,,,,,,,,,,,,,422.70153670801665,423.1920423330157,423.1920423330157,424.06858054202166,b,1,0.8719649589911569,None,,,,,df,001,2024-03-08_13h29.39.205,stroop_test,2023.2.3,None,2024-03-08 13h29.53.703293 +0100,
,,,,,,,,rot,yellow,g,0,,,,,,,,,3,7,34,2,424.0778502920002,,,,,,,,,,,,,,,,,424.06945404200815,424.41755479201674,425.20660962502006,425.2015772500017,,,,,,,,,,,,,,,,,,,,,,,,,,,,,,,,,,,,425.2016018750146,425.69209512500674,425.69209512500674,427.11804470801144,g,1,1.4191017500124872,None,,,,,df,001,2024-03-08_13h29.39.205,stroop_test,2023.2.3,None,2024-03-08 13h29.53.703293 +0100,
,,,,,,,,blau,yellow,g,0,,,,,,,,,3,8,35,5,427.12770100001944,,,,,,,,,,,,,,,,,427.1189348330081,427.45869304201915,428.2595078330196,428.25143979201675,,,,,,,,,,,,,,,,,,,,,,,,,,,,,,,,,,,,428.251464083005,428.7420122080075,428.7420122080075,429.23695454202243,g,1,0.48258079201332293,0.007890749984653667,,,,,df,001,2024-03-08_13h29.39.205,stroop_test,2023.2.3,None,2024-03-08 13h29.53.703293 +0100,
,,,,,,,,blau,red,r,0,,,,,,,,,4,0,36,3,429.25112512501073,,,,,,,,,,,,,,,,,429.2377508750069,430.034138625022,430.8237004170078,430.8181067080004,,,,,,,,,,,,,,,,,,,,,,,,,,,,,,,,,,,,430.81813604201307,431.30917566700373,431.30917566700373,432.00156458301353,r,1,0.683084875025088,None,,,,,df,001,2024-03-08_13h29.39.205,stroop_test,2023.2.3,None,2024-03-08 13h29.53.703293 +0100,
,,,,,,,,gelb,yellow,g,1,,,,,,,,,4,1,37,8,432.0084638330154,,,,,,,,,,,,,,,,,432.00248750002356,432.10113358299714,432.893006667,432.88434566700016,,,,,,,,,,,,,,,,,,,,,,,,,,,,,,,,,,,,432.88436983301654,433.37518083301256,433.37518083301256,434.2021967920009,g,1,0.817671666998649,0.008187500003259629,,,,,df,001,2024-03-08_13h29.39.205,stroop_test,2023.2.3,None,2024-03-08 13h29.53.703293 +0100,
,,,,,,,,blau,blue,b,1,,,,,,,,,4,2,38,4,434.211693417019,,,,,,,,,,,,,,,,,434.20308208299684,435.40086154200253,436.1935924999998,436.1850800420216,,,,,,,,,,,,,,,,,,,,,,,,,,,,,,,,,,,,436.1851101250213,436.67525941701024,436.67525941701024,437.0080362500157,b,1,0.32691783300833777,None,,,,,df,001,2024-03-08_13h29.39.205,stroop_test,2023.2.3,None,2024-03-08 13h29.53.703293 +0100,
,,,,,,,,rot,blue,b,0,,,,,,,,,4,3,39,1,437.0176611250208,,,,,,,,,,,,,,,,,437.00892191700405,437.8084333750012,438.59980545801227,438.5914865829982,,,,,,,,,,,,,,,,,,,,,,,,,,,,,,,,,,,,438.59150791700813,439.0925335420179,439.0925335420179,439.7079888750159,b,1,0.6118165000225417,None,,,,,df,001,2024-03-08_13h29.39.205,stroop_test,2023.2.3,None,2024-03-08 13h29.53.703293 +0100,
,,,,,,,,blau,yellow,g,0,,,,,,,,,4,4,40,5,439.717470167001,,,,,,,,,,,,,,,,,439.7089251250145,439.80919458300923,440.608991917019,440.600869832997,,,,,,,,,,,,,,,,,,,,,,,,,,,,,,,,,,,,440.6008945830108,441.092311083019,441.092311083019,441.71855137500097,r,0,0.6195514579885639,None,,,,,df,001,2024-03-08_13h29.39.205,stroop_test,2023.2.3,None,2024-03-08 13h29.53.703293 +0100,
,,,,,,,,rot,yellow,g,0,,,,,,,,,4,5,41,2,441.7286484170181,,,,,,,,,,,,,,,,,441.7194460830069,442.5176308750233,443.3095684169966,443.30150491700624,,,,,,,,,,,,,,,,,,,,,,,,,,,,,,,,,,,,443.30152550002094,443.79232141701505,443.79232141701505,444.60192183300387,g,1,0.8009656250069384,None,,,,,df,001,2024-03-08_13h29.39.205,stroop_test,2023.2.3,None,2024-03-08 13h29.53.703293 +0100,
,,,,,,,,rot,red,r,1,,,,,,,,,4,6,42,0,444.6112751250039,,,,,,,,,,,,,,,,,444.6028256250138,444.7008974580094,445.4890005000052,445.483864208014,,,,,,,,,,,,,,,,,,,,,,,,,,,,,,,,,,,,445.4838889170205,445.9759341670142,445.9759341670142,446.55113233299926,r,1,0.5676270840049256,None,,,,,df,001,2024-03-08_13h29.39.205,stroop_test,2023.2.3,None,2024-03-08 13h29.53.703293 +0100,
,,,,,,,,gelb,red,r,0,,,,,,,,,4,7,43,6,446.5607440000167,,,,,,,,,,,,,,,,,446.55200970801525,446.89203579199966,447.6927600830095,447.6846535420045,,,,,,,,,,,,,,,,,,,,,,,,,,,,,,,,,,,,447.68467779201455,448.1754294580023,448.1754294580023,449.3692194170144,r,1,1.1924541660118848,None,,,,,df,001,2024-03-08_13h29.39.205,stroop_test,2023.2.3,None,2024-03-08 13h29.53.703293 +0100,
,,,,,,,,gelb,blue,b,0,,,,,,,,,4,8,44,7,449.378036375012,,,,,,,,,,,,,,,,,449.37011520800297,450.5674787920143,451.3564745420008,451.3513119170093,,,,,,,,,,,,,,,,,,,,,,,,,,,,,,,,,,,,451.3513334169984,451.84234741699765,451.84234741699765,452.45854479199625,b,1,0.6136406250006985,None,,,,,df,001,2024-03-08_13h29.39.205,stroop_test,2023.2.3,None,2024-03-08 13h29.53.703293 +0100,
,,,,,,,,,,,,,,,,,,,,,,,,,,,,,,,,,,,,,,,,,,,,,,,,,,,,,,,,,,,,,,,,,,,,,,,,,,,,,,,,,,,,,,,,452.45920579202357,452.46990520801046,457.4675876670226,457.4574912500102,,,,,,,,
