wordCTK,colorCTK,corrAnsCTK,congruentCTK,wordPractice,colorPractice,corrAnsPractice,congruentPractice,word,color,corrAns,congruent,trials_CTK.thisRepN,trials_CTK.thisTrialN,trials_CTK.thisN,trials_CTK.thisIndex,trials_practice.thisRepN,trials_practice.thisTrialN,trials_practice.thisN,trials_practice.thisIndex,trials_test.thisRepN,trials_test.thisTrialN,trials_test.thisN,trials_test.thisIndex,thisRow.t,notes,instruction.started,instr_text.started,instr_image.started,instr_resp.started,instruction.stopped,instr_resp.keys,instr_resp.rt,instr_resp.duration,instr_color_to_key.started,instr_ctk.started,resp_ctk.started,instr_color_to_key.stopped,resp_ctk.keys,resp_ctk.rt,resp_ctk.duration,ITI.started,fixcross.started,fixcross.stopped,ITI.stopped,color_to_key_run.started,stimulus_CTK.started,keyResp_CTK.started,color_to_key_run.stopped,keyResp_CTK.keys,keyResp_CTK.corr,keyResp_CTK.rt,keyResp_CTK.duration,instr_practice.started,instr_practice_text.started,instr_practice_resp.started,instr_practice.stopped,instr_practice_resp.keys,instr_practice_resp.rt,instr_practice_resp.duration,practice_run.started,stimulus_practice.started,respPractice.started,practice_run.stopped,respPractice.keys,respPractice.corr,respPractice.rt,respPractice.duration,practice_feedback.started,textFeedback.started,textFeedback.stopped,practice_feedback.stopped,instr_test.started,instr_test_text.started,instr_test_resp.started,instr_test.stopped,instr_test_resp.keys,instr_test_resp.rt,instr_test_resp.duration,test_run.started,stimulus_test_run.started,keyResp_test_run.started,test_run.stopped,keyResp_test_run.keys,keyResp_test_run.corr,keyResp_test_run.rt,keyResp_test_run.duration,goodbye.started,textGoodbye.started,goodbye.stopped,participant,session,date,expName,psychopyVersion,frameRate,expStart,
,,,,,,,,,,,,,,,,,,,,,,,,,,0.03261670000028971,0.05789329999970505,0.05789329999970505,0.05789329999970505,19.45868580000024,space,19.383435400000053,None,,,,,,,,,,,,,,,,,,,,,,,,,,,,,,,,,,,,,,,,,,,,,,,,,,,,,,,,,sub-434027,001,2024-03-09_14h01.53.650,stroop_test,2023.2.3,59.94556942307401,2024-03-09 14h02.02.498737 +0100,
,,,,,,,,,,,,,,,,,,,,,,,,,,,,,,,,,,19.458707400000094,19.471391300000505,19.471391300000505,24.42617380000047,space,4.945436800000607,None,,,,,,,,,,,,,,,,,,,,,,,,,,,,,,,,,,,,,,,,,,,,,,,,,,sub-434027,001,2024-03-09_14h01.53.650,stroop_test,2023.2.3,59.94556942307401,2024-03-09 14h02.02.498737 +0100,
test,yellow,g,1,,,,,,,,,0,0,0,1,,,,,,,,,24.444695500000307,,,,,,,,,,,,,,,,,24.442171400000007,25.62646010000026,26.427103300000454,26.412444999999934,26.41245809999964,26.427103300000454,26.427103300000454,27.246650500000214,g,1,0.805463100000452,None,,,,,,,,,,,,,,,,,,,,,,,,,,,,,,,,,,,,,,sub-434027,001,2024-03-09_14h01.53.650,stroop_test,2023.2.3,59.94556942307401,2024-03-09 14h02.02.498737 +0100,
test,red,r,1,,,,,,,,,0,1,1,0,,,,,,,,,27.26124390000041,,,,,,,,,,,,,,,,,27.247158000000127,27.594755400000395,28.395578800000294,28.379081099999894,28.379097799999727,28.395578800000294,28.395578800000294,28.996519299999818,r,1,0.5975526000001992,None,,,,,,,,,,,,,,,,,,,,,,,,,,,,,,,,,,,,,,sub-434027,001,2024-03-09_14h01.53.650,stroop_test,2023.2.3,59.94556942307401,2024-03-09 14h02.02.498737 +0100,
test,blue,b,1,,,,,,,,,0,2,2,2,,,,,,,,,29.01426150000043,,,,,,,,,,,,,,,,,28.996870599999966,29.0960855000003,29.89682410000023,29.881939699999748,29.881951800000024,29.89682410000023,29.89682410000023,30.26424550000047,b,1,0.35994380000011006,None,,,,,,,,,,,,,,,,,,,,,,,,,,,,,,,,,,,,,,sub-434027,001,2024-03-09_14h01.53.650,stroop_test,2023.2.3,59.94556942307401,2024-03-09 14h02.02.498737 +0100,
test,red,r,1,,,,,,,,,1,0,3,0,,,,,,,,,30.281965299999683,,,,,,,,,,,,,,,,,30.26459320000049,30.363816199999746,31.164465400000154,31.149726599999667,31.14973850000024,31.164465400000154,31.164465400000154,31.698898999999983,g,0,0.5245000999993863,None,,,,,,,,,,,,,,,,,,,,,,,,,,,,,,,,,,,,,,sub-434027,001,2024-03-09_14h01.53.650,stroop_test,2023.2.3,59.94556942307401,2024-03-09 14h02.02.498737 +0100,
test,yellow,g,1,,,,,,,,,1,1,4,1,,,,,,,,,31.71651279999969,,,,,,,,,,,,,,,,,31.699256300000343,32.4989243,33.30120700000043,33.28478189999987,33.28479380000044,33.30120700000043,33.30120700000043,33.818756399999984,r,0,0.5157000999997763,None,,,,,,,,,,,,,,,,,,,,,,,,,,,,,,,,,,,,,,sub-434027,001,2024-03-09_14h01.53.650,stroop_test,2023.2.3,59.94556942307401,2024-03-09 14h02.02.498737 +0100,
test,blue,b,1,,,,,,,,,1,2,5,2,,,,,,,,,33.83334470000045,,,,,,,,,,,,,,,,,33.8191267000002,35.03426920000038,35.83503070000006,35.8201882000003,35.82020019999982,35.83503070000006,35.83503070000006,36.33767850000004,b,1,0.5015376999999717,None,,,,,,,,,,,,,,,,,,,,,,,,,,,,,,,,,,,,,,sub-434027,001,2024-03-09_14h01.53.650,stroop_test,2023.2.3,59.94556942307401,2024-03-09 14h02.02.498737 +0100,
test,blue,b,1,,,,,,,,,2,0,6,2,,,,,,,,,36.352102200000445,,,,,,,,,,,,,,,,,36.3380459,37.553091900000254,38.35387929999979,38.3389801000003,38.33899250000013,38.35387929999979,38.35387929999979,38.873542799999996,b,1,0.5186671999999817,None,,,,,,,,,,,,,,,,,,,,,,,,,,,,,,,,,,,,,,sub-434027,001,2024-03-09_14h01.53.650,stroop_test,2023.2.3,59.94556942307401,2024-03-09 14h02.02.498737 +0100,
test,yellow,g,1,,,,,,,,,2,1,7,1,,,,,,,,,38.887473200000386,,,,,,,,,,,,,,,,,38.87391740000021,40.07340860000022,40.874067800000375,40.856279200000245,40.85629109999991,40.874067800000375,40.874067800000375,41.52358819999972,g,1,0.6466524999996182,None,,,,,,,,,,,,,,,,,,,,,,,,,,,,,,,,,,,,,,sub-434027,001,2024-03-09_14h01.53.650,stroop_test,2023.2.3,59.94556942307401,2024-03-09 14h02.02.498737 +0100,
test,red,r,1,,,,,,,,,2,2,8,0,,,,,,,,,41.54129590000048,,,,,,,,,,,,,,,,,41.52395330000036,41.87494479999987,42.67560409999987,42.657662900000105,42.657674699999916,42.67560409999987,42.67560409999987,43.37673939999968,r,1,0.6850389000001087,None,,,,,,,,,,,,,,,,,,,,,,,,,,,,,,,,,,,,,,sub-434027,001,2024-03-09_14h01.53.650,stroop_test,2023.2.3,59.94556942307401,2024-03-09 14h02.02.498737 +0100,
,,,,,,,,,,,,,,,,,,,,,,,,,,,,,,,,,,,,,,,,,,,,,,,,,,,,,43.377006300000176,43.39158520000001,43.39158520000001,49.7485800000004,space,6.338561300000038,None,,,,,,,,,,,,,,,,,,,,,,,,,,,,,,,sub-434027,001,2024-03-09_14h01.53.650,stroop_test,2023.2.3,59.94556942307401,2024-03-09 14h02.02.498737 +0100,
,,,,blau,blue,b,1,,,,,,,,,0,0,0,5,,,,,49.76334829999996,,,,,,,,,,,,,,,,,49.758211700000174,50.563924699999916,51.3644333000002,51.349736199999825,,,,,,,,,,,,,,,,51.349749500000144,51.3644333000002,51.3644333000002,51.95041630000014,b,1,0.5723604000004343,None,51.950782799999615,51.965024000000085,52.96590709999964,52.9510207000003,,,,,,,,,,,,,,,,,,,sub-434027,001,2024-03-09_14h01.53.650,stroop_test,2023.2.3,59.94556942307401,2024-03-09 14h02.02.498737 +0100,
,,,,blau,blue,b,1,,,,,,,,,0,1,1,6,,,,,52.96590709999964,,,,,,,,,,,,,,,,,52.95121339999969,54.15174680000018,54.952424000000065,54.93452030000026,,,,,,,,,,,,,,,,54.93453250000039,54.952424000000065,54.952424000000065,55.43508070000007,b,1,0.47229760000027454,None,55.43531390000044,55.452821900000345,,56.43701609999971,,,,,,,,,,,,,,,,,,,sub-434027,001,2024-03-09_14h01.53.650,stroop_test,2023.2.3,59.94556942307401,2024-03-09 14h02.02.498737 +0100,
,,,,blau,red,r,0,,,,,,,,,0,2,2,4,,,,,56.453685999999834,,,,,,,,,,,,,,,,,56.43721710000045,57.237640700000156,58.03674529999989,58.02043060000051,,,,,,,,,,,,,,,,58.02044290000049,58.03674529999989,58.03674529999989,58.68786749999981,g,0,0.6362925000003088,None,58.688106999999945,58.70385820000047,,59.688288000000284,,,,,,,,,,,,,,,,,,,sub-434027,001,2024-03-09_14h01.53.650,stroop_test,2023.2.3,59.94556942307401,2024-03-09 14h02.02.498737 +0100,
,,,,gelb,blue,b,0,,,,,,,,,0,3,3,9,,,,,59.706403500000306,,,,,,,,,,,,,,,,,59.68850079999993,60.488847700000406,61.289356500000395,61.274656000000505,,,,,,,,,,,,,,,,61.27466800000002,61.289356500000395,61.289356500000395,62.19072909999977,b,1,0.8878723000007085,None,62.190956299999925,62.20675019999999,,63.19111750000047,,,,,,,,,,,,,,,,,,,sub-434027,001,2024-03-09_14h01.53.650,stroop_test,2023.2.3,59.94556942307401,2024-03-09 14h02.02.498737 +0100,
,,,,gelb,yellow,g,1,,,,,,,,,0,4,4,10,,,,,63.20930070000031,,,,,,,,,,,,,,,,,63.191306700000496,63.99168980000013,64.79233790000035,64.77759930000047,,,,,,,,,,,,,,,,64.77761190000001,64.79233790000035,64.79233790000035,65.57839010000043,g,1,0.7762628000000404,None,65.57864299999983,65.59305359999962,,66.5787479999999,,,,,,,,,,,,,,,,,,,sub-434027,001,2024-03-09_14h01.53.650,stroop_test,2023.2.3,59.94556942307401,2024-03-09 14h02.02.498737 +0100,
,,,,rot,red,r,1,,,,,,,,,0,5,5,1,,,,,66.59389900000042,,,,,,,,,,,,,,,,,66.57893739999963,66.69401139999991,67.49459860000024,67.47975690000021,,,,,,,,,,,,,,,,67.47976840000047,67.49459860000024,67.49459860000024,68.01379970000016,r,1,0.5069211999998515,None,68.01404040000034,68.02837340000042,,69.01412160000018,,,,,,,,,,,,,,,,,,,sub-434027,001,2024-03-09_14h01.53.650,stroop_test,2023.2.3,59.94556942307401,2024-03-09 14h02.02.498737 +0100,
,,,,gelb,yellow,g,1,,,,,,,,,0,6,6,11,,,,,69.02920249999988,,,,,,,,,,,,,,,,,69.01431479999974,69.81476509999993,70.61375419999968,70.59747940000034,,,,,,,,,,,,,,,,70.59749069999998,70.61375419999968,70.61375419999968,71.14972560000024,g,1,0.5231051999999181,None,71.1499702000001,71.16594259999965,,72.15006379999977,,,,,,,,,,,,,,,,,,,sub-434027,001,2024-03-09_14h01.53.650,stroop_test,2023.2.3,59.94556942307401,2024-03-09 14h02.02.498737 +0100,
,,,,rot,yellow,g,0,,,,,,,,,0,7,7,3,,,,,72.16522629999963,,,,,,,,,,,,,,,,,72.15025229999992,72.49886140000035,73.29933849999998,73.28459480000038,,,,,,,,,,,,,,,,73.28460759999962,73.29933849999998,73.29933849999998,74.15224200000011,g,1,0.8379668999996284,None,74.15247980000004,74.1668695999997,,75.15254650000043,,,,,,,,,,,,,,,,,,,sub-434027,001,2024-03-09_14h01.53.650,stroop_test,2023.2.3,59.94556942307401,2024-03-09 14h02.02.498737 +0100,
,,,,rot,red,r,1,,,,,,,,,0,8,8,0,,,,,75.1676223000004,,,,,,,,,,,,,,,,,75.15275050000037,76.3535453000004,77.1526001000002,77.13780080000015,,,,,,,,,,,,,,,,77.13781680000011,77.1526001000002,77.1526001000002,77.70516120000048,r,1,0.5447169999997641,None,77.70545130000028,77.71970200000032,,78.7055363999998,,,,,,,,,,,,,,,,,,,sub-434027,001,2024-03-09_14h01.53.650,stroop_test,2023.2.3,59.94556942307401,2024-03-09 14h02.02.498737 +0100,
,,,,rot,blue,b,0,,,,,,,,,0,9,9,2,,,,,78.72057719999975,,,,,,,,,,,,,,,,,78.70572309999989,79.50614500000029,80.3067775999998,80.28883570000016,,,,,,,,,,,,,,,,80.28884730000027,80.3067775999998,80.3067775999998,80.78956259999995,b,1,0.4781517999999778,None,80.78979419999996,80.80725749999965,,81.78984130000026,,,,,,,,,,,,,,,,,,,sub-434027,001,2024-03-09_14h01.53.650,stroop_test,2023.2.3,59.94556942307401,2024-03-09 14h02.02.498737 +0100,
,,,,gelb,red,r,0,,,,,,,,,0,10,10,8,,,,,81.80802620000031,,,,,,,,,,,,,,,,,81.7900279000005,82.1399736000003,82.94060950000039,82.9244576000001,,,,,,,,,,,,,,,,82.92446930000006,82.94060950000039,82.94060950000039,83.9587459000004,g,0,1.012798799999473,None,83.95897799999966,83.97476590000042,,84.9591747000004,,,,,,,,,,,,,,,,,,,sub-434027,001,2024-03-09_14h01.53.650,stroop_test,2023.2.3,59.94556942307401,2024-03-09 14h02.02.498737 +0100,
,,,,blau,yellow,g,0,,,,,,,,,0,11,11,7,,,,,84.97735029999967,,,,,,,,,,,,,,,,,84.95936390000043,86.16015599999992,86.96074510000017,86.94593450000048,,,,,,,,,,,,,,,,86.94594630000029,86.96074510000017,86.96074510000017,87.4617545000001,b,0,0.4884962000005544,None,87.46200120000049,87.47763209999994,,88.46211719999974,,,,,,,,,,,,,,,,,,,sub-434027,001,2024-03-09_14h01.53.650,stroop_test,2023.2.3,59.94556942307401,2024-03-09 14h02.02.498737 +0100,
,,,,blau,red,r,0,,,,,,,,,1,0,12,4,,,,,88.48033839999971,,,,,,,,,,,,,,,,,88.46235330000036,89.66300150000006,90.46368340000026,90.4488265,,,,,,,,,,,,,,,,90.44883860000027,90.46368340000026,90.46368340000026,91.03140689999964,g,0,0.5611589000000095,None,91.03164019999986,91.0490120000004,92.0498361,92.03189180000027,,,,,,,,,,,,,,,,,,,sub-434027,001,2024-03-09_14h01.53.650,stroop_test,2023.2.3,59.94556942307401,2024-03-09 14h02.02.498737 +0100,
,,,,rot,blue,b,0,,,,,,,,,1,1,13,2,,,,,92.0498361,,,,,,,,,,,,,,,,,92.0320800999998,92.13171450000027,92.9323445,92.9175621000004,,,,,,,,,,,,,,,,92.91757479999978,92.9323445,92.9323445,93.53331650000018,b,1,0.5883230999997977,None,93.53354949999994,93.54941130000043,,94.53371239999979,,,,,,,,,,,,,,,,,,,sub-434027,001,2024-03-09_14h01.53.650,stroop_test,2023.2.3,59.94556942307401,2024-03-09 14h02.02.498737 +0100,
,,,,gelb,yellow,g,1,,,,,,,,,1,2,14,11,,,,,94.55188799999996,,,,,,,,,,,,,,,,,94.53389940000034,94.63380250000046,95.43438760000026,95.41963860000033,,,,,,,,,,,,,,,,95.41965419999997,95.43438760000026,95.43438760000026,96.0538002000003,g,1,0.6071278999997958,None,96.0540576000003,96.06818290000047,97.07071480000013,97.0526533000002,,,,,,,,,,,,,,,,,,,sub-434027,001,2024-03-09_14h01.53.650,stroop_test,2023.2.3,59.94556942307401,2024-03-09 14h02.02.498737 +0100,
,,,,gelb,blue,b,0,,,,,,,,,1,3,15,9,,,,,97.07071480000013,,,,,,,,,,,,,,,,,97.05284459999984,97.41945329999999,98.22009679999974,98.20520420000048,,,,,,,,,,,,,,,,98.20521579999968,98.22009679999974,98.22009679999974,98.7877311000002,b,1,0.557117900000776,None,98.78796409999995,98.80559640000047,,99.78810690000046,,,,,,,,,,,,,,,,,,,sub-434027,001,2024-03-09_14h01.53.650,stroop_test,2023.2.3,59.94556942307401,2024-03-09 14h02.02.498737 +0100,
,,,,blau,blue,b,1,,,,,,,,,1,4,16,6,,,,,99.80626819999998,,,,,,,,,,,,,,,,,99.7882939000001,100.13993839999966,100.93885769999997,100.92266840000048,,,,,,,,,,,,,,,,100.92268030000014,100.93885769999997,100.93885769999997,101.47487900000033,b,1,0.5262288000003537,None,101.47512749999987,101.48944910000046,,102.47524040000008,,,,,,,,,,,,,,,,,,,sub-434027,001,2024-03-09_14h01.53.650,stroop_test,2023.2.3,59.94556942307401,2024-03-09 14h02.02.498737 +0100,
,,,,blau,blue,b,1,,,,,,,,,1,5,17,5,,,,,102.49026920000051,,,,,,,,,,,,,,,,,102.4754324000005,103.27585910000016,104.07652510000025,104.06013129999974,,,,,,,,,,,,,,,,104.06014349999987,104.07652510000025,104.07652510000025,104.49254480000036,b,1,0.41271100000085426,None,104.49277710000024,104.51017899999988,,105.49286680000023,,,,,,,,,,,,,,,,,,,sub-434027,001,2024-03-09_14h01.53.650,stroop_test,2023.2.3,59.94556942307401,2024-03-09 14h02.02.498737 +0100,
,,,,rot,red,r,1,,,,,,,,,1,6,18,0,,,,,105.51099780000004,,,,,,,,,,,,,,,,,105.49305120000008,105.84466950000024,106.64534040000035,106.6273940000001,,,,,,,,,,,,,,,,106.62740589999976,106.64534040000035,106.64534040000035,107.14442400000007,r,1,0.4838430999998309,None,107.14466170000014,107.16080620000048,,108.14670120000028,,,,,,,,,,,,,,,,,,,sub-434027,001,2024-03-09_14h01.53.650,stroop_test,2023.2.3,59.94556942307401,2024-03-09 14h02.02.498737 +0100,
,,,,rot,red,r,1,,,,,,,,,1,7,19,1,,,,,108.16321330000028,,,,,,,,,,,,,,,,,108.14693520000037,109.34756990000005,110.14822259999983,110.13033759999962,,,,,,,,,,,,,,,,110.13036639999973,110.14822259999983,110.14822259999983,110.66422739999962,r,1,0.509063900000001,None,110.6644655,110.68200869999964,,111.66467319999992,,,,,,,,,,,,,,,,,,,sub-434027,001,2024-03-09_14h01.53.650,stroop_test,2023.2.3,59.94556942307401,2024-03-09 14h02.02.498737 +0100,
,,,,rot,yellow,g,0,,,,,,,,,1,8,20,3,,,,,111.6828201999997,,,,,,,,,,,,,,,,,111.6648654999999,112.8655374,113.66622850000022,113.65140539999993,,,,,,,,,,,,,,,,113.65141680000033,113.66622850000022,113.66622850000022,114.40079549999973,g,1,0.7264838000000964,None,114.40109110000049,114.41669490000004,,115.40117199999986,,,,,,,,,,,,,,,,,,,sub-434027,001,2024-03-09_14h01.53.650,stroop_test,2023.2.3,59.94556942307401,2024-03-09 14h02.02.498737 +0100,
,,,,gelb,yellow,g,1,,,,,,,,,1,9,21,10,,,,,115.41919510000025,,,,,,,,,,,,,,,,,115.40137549999963,116.60361069999999,117.4025646,117.38635340000019,,,,,,,,,,,,,,,,117.3863652,117.4025646,117.4025646,117.95371350000005,g,1,0.5421400000004724,None,117.95394880000003,117.97133920000033,,118.95402999999988,,,,,,,,,,,,,,,,,,,sub-434027,001,2024-03-09_14h01.53.650,stroop_test,2023.2.3,59.94556942307401,2024-03-09 14h02.02.498737 +0100,
,,,,gelb,red,r,0,,,,,,,,,1,10,22,8,,,,,118.97220240000024,,,,,,,,,,,,,,,,,118.95421679999981,119.05402419999973,119.8546311,119.83988990000034,,,,,,,,,,,,,,,,119.83990249999988,119.8546311,119.8546311,121.40693519999968,r,1,1.538880699999936,None,121.40742669999963,121.42430289999993,,122.40865779999967,,,,,,,,,,,,,,,,,,,sub-434027,001,2024-03-09_14h01.53.650,stroop_test,2023.2.3,59.94556942307401,2024-03-09 14h02.02.498737 +0100,
,,,,blau,yellow,g,0,,,,,,,,,1,11,23,7,,,,,122.42510969999967,,,,,,,,,,,,,,,,,122.40915190000032,122.5068839000005,123.30913969999983,123.2927236000005,,,,,,,,,,,,,,,,123.29273480000029,123.30913969999983,123.30913969999983,124.05884549999973,g,1,0.7401323000003686,None,124.05908369999997,124.07645330000014,125.07727909999994,125.05927400000019,,,,,,,,,,,,,,,,,,,sub-434027,001,2024-03-09_14h01.53.650,stroop_test,2023.2.3,59.94556942307401,2024-03-09 14h02.02.498737 +0100,
,,,,,,,,,,,,,,,,,,,,,,,,,,,,,,,,,,,,,,,,,,,,,,,,,,,,,,,,,,,,,,,,,,,,,,,,125.05931450000026,125.07727909999994,125.07727909999994,132.19879560000027,space,7.117002099999809,None,,,,,,,,,,,,sub-434027,001,2024-03-09_14h01.53.650,stroop_test,2023.2.3,59.94556942307401,2024-03-09 14h02.02.498737 +0100,
,,,,,,,,rot,red,r,1,,,,,,,,,0,0,0,1,132.2165199000001,,,,,,,,,,,,,,,,,132.2080421999999,132.99895920000017,133.79950449999978,133.78322409999964,,,,,,,,,,,,,,,,,,,,,,,,,,,,,,,,,,,133.78323939999973,133.79950449999978,133.79950449999978,134.4188724000005,g,0,0.6178218000004563,None,,,,sub-434027,001,2024-03-09_14h01.53.650,stroop_test,2023.2.3,59.94556942307401,2024-03-09 14h02.02.498737 +0100,
,,,,,,,,blau,red,r,0,,,,,,,,,0,1,1,4,134.43502869999975,,,,,,,,,,,,,,,,,134.41947359999995,135.61935280000034,136.42001270000037,136.4019773,,,,,,,,,,,,,,,,,,,,,,,,,,,,,,,,,,,136.40198940000028,136.42001270000037,136.42001270000037,137.53817470000013,r,1,1.1087944999999308,None,,,,sub-434027,001,2024-03-09_14h01.53.650,stroop_test,2023.2.3,59.94556942307401,2024-03-09 14h02.02.498737 +0100,
,,,,,,,,blau,blue,b,1,,,,,,,,,0,2,2,5,137.55428010000014,,,,,,,,,,,,,,,,,137.53860910000003,137.88787260000026,138.68856099999994,138.67219279999972,,,,,,,,,,,,,,,,,,,,,,,,,,,,,,,,,,,138.67220540000017,138.68856099999994,138.68856099999994,139.22133209999993,b,1,0.5207977999998548,None,,,,sub-434027,001,2024-03-09_14h01.53.650,stroop_test,2023.2.3,59.94556942307401,2024-03-09 14h02.02.498737 +0100,
,,,,,,,,gelb,yellow,g,1,,,,,,,,,0,3,3,10,139.23755869999968,,,,,,,,,,,,,,,,,139.22174939999968,139.3207441000004,140.1230857999999,140.10668069999974,,,,,,,,,,,,,,,,,,,,,,,,,,,,,,,,,,,140.10669280000002,140.1230857999999,140.1230857999999,140.70743719999973,g,1,0.5743173000000752,None,,,,sub-434027,001,2024-03-09_14h01.53.650,stroop_test,2023.2.3,59.94556942307401,2024-03-09 14h02.02.498737 +0100,
,,,,,,,,rot,yellow,g,0,,,,,,,,,0,4,4,3,140.72361600000022,,,,,,,,,,,,,,,,,140.7078289000001,141.0556071000001,141.8578163000002,141.84146409999994,,,,,,,,,,,,,,,,,,,,,,,,,,,,,,,,,,,141.84147639999992,141.8578163000002,141.8578163000002,142.3921949000005,g,1,0.5271624999995765,None,,,,sub-434027,001,2024-03-09_14h01.53.650,stroop_test,2023.2.3,59.94556942307401,2024-03-09 14h02.02.498737 +0100,
,,,,,,,,blau,blue,b,1,,,,,,,,,0,5,5,6,142.4066829000003,,,,,,,,,,,,,,,,,142.39259089999996,143.59100430000035,144.39175109999996,144.37694079999983,,,,,,,,,,,,,,,,,,,,,,,,,,,,,,,,,,,144.3769540000003,144.39175109999996,144.39175109999996,144.9276329000004,b,1,0.5297712000001411,None,,,,sub-434027,001,2024-03-09_14h01.53.650,stroop_test,2023.2.3,59.94556942307401,2024-03-09 14h02.02.498737 +0100,
,,,,,,,,gelb,yellow,g,1,,,,,,,,,0,6,6,11,144.94374830000015,,,,,,,,,,,,,,,,,144.92802500000016,146.12642510000023,146.92705110000043,146.91229070000009,,,,,,,,,,,,,,,,,,,,,,,,,,,,,,,,,,,146.91230280000036,146.92705110000043,146.92705110000043,147.56153970000014,g,1,0.625663099999656,None,,,,sub-434027,001,2024-03-09_14h01.53.650,stroop_test,2023.2.3,59.94556942307401,2024-03-09 14h02.02.498737 +0100,
,,,,,,,,gelb,red,r,0,,,,,,,,,0,7,7,8,147.57934209999985,,,,,,,,,,,,,,,,,147.56195670000034,148.76357740000003,149.56274099999973,149.5478347999997,,,,,,,,,,,,,,,,,,,,,,,,,,,,,,,,,,,149.5478466000004,149.56274099999973,149.56274099999973,150.11370069999975,r,1,0.5343774000002668,None,,,,sub-434027,001,2024-03-09_14h01.53.650,stroop_test,2023.2.3,59.94556942307401,2024-03-09 14h02.02.498737 +0100,
,,,,,,,,rot,blue,b,0,,,,,,,,,0,8,8,2,150.13140459999977,,,,,,,,,,,,,,,,,150.1141574000003,151.3156471000002,152.11457510000037,152.0984636000003,,,,,,,,,,,,,,,,,,,,,,,,,,,,,,,,,,,152.09847480000008,152.11457510000037,152.11457510000037,152.78415779999978,b,1,0.6621893000001364,None,,,,sub-434027,001,2024-03-09_14h01.53.650,stroop_test,2023.2.3,59.94556942307401,2024-03-09 14h02.02.498737 +0100,
,,,,,,,,rot,red,r,1,,,,,,,,,0,9,9,0,152.7987132999997,,,,,,,,,,,,,,,,,152.7846000999998,153.59935779999978,154.40001269999993,154.38524080000025,,,,,,,,,,,,,,,,,,,,,,,,,,,,,,,,,,,154.38525320000008,154.40001269999993,154.40001269999993,155.4196178000002,r,1,1.0174535000005562,None,,,,sub-434027,001,2024-03-09_14h01.53.650,stroop_test,2023.2.3,59.94556942307401,2024-03-09 14h02.02.498737 +0100,
,,,,,,,,gelb,blue,b,0,,,,,,,,,0,10,10,9,155.4341873000003,,,,,,,,,,,,,,,,,155.4200369,156.21970890000011,157.01875219999965,157.00403160000042,,,,,,,,,,,,,,,,,,,,,,,,,,,,,,,,,,,157.00404309999976,157.01875219999965,157.01875219999965,157.51966210000046,b,1,0.4938385000004928,None,,,,sub-434027,001,2024-03-09_14h01.53.650,stroop_test,2023.2.3,59.94556942307401,2024-03-09 14h02.02.498737 +0100,
,,,,,,,,blau,yellow,g,0,,,,,,,,,0,11,11,7,157.53752450000047,,,,,,,,,,,,,,,,,157.52006700000038,158.31994380000015,159.12051780000002,159.10580500000015,,,,,,,,,,,,,,,,,,,,,,,,,,,,,,,,,,,159.10581739999998,159.12051780000002,159.12051780000002,159.95505870000034,r,0,0.8245673999999781,None,,,,sub-434027,001,2024-03-09_14h01.53.650,stroop_test,2023.2.3,59.94556942307401,2024-03-09 14h02.02.498737 +0100,
,,,,,,,,blau,yellow,g,0,,,,,,,,,1,0,12,7,159.97283440000047,,,,,,,,,,,,,,,,,159.95554360000006,160.7553227999997,161.5559118000001,161.54109270000026,,,,,,,,,,,,,,,,,,,,,,,,,,,,,,,,,,,161.54110500000024,161.5559118000001,161.5559118000001,162.70904580000024,g,1,1.1489929999997912,None,,,,sub-434027,001,2024-03-09_14h01.53.650,stroop_test,2023.2.3,59.94556942307401,2024-03-09 14h02.02.498737 +0100,
,,,,,,,,gelb,yellow,g,1,,,,,,,,,1,1,13,10,162.72349349999968,,,,,,,,,,,,,,,,,162.70945250000022,163.07537760000014,163.87608470000032,163.85975260000032,,,,,,,,,,,,,,,,,,,,,,,,,,,,,,,,,,,163.85976409999967,163.87608470000032,163.87608470000032,164.46049659999971,g,1,0.581071300000076,None,,,,sub-434027,001,2024-03-09_14h01.53.650,stroop_test,2023.2.3,59.94556942307401,2024-03-09 14h02.02.498737 +0100,
,,,,,,,,blau,blue,b,1,,,,,,,,,1,2,14,6,164.47498449999966,,,,,,,,,,,,,,,,,164.46090230000027,164.56000440000025,165.36070370000016,165.34427620000042,,,,,,,,,,,,,,,,,,,,,,,,,,,,,,,,,,,165.3442882999998,165.36070370000016,165.36070370000016,165.92681400000038,b,1,0.5608647999997629,None,,,,sub-434027,001,2024-03-09_14h01.53.650,stroop_test,2023.2.3,59.94556942307401,2024-03-09 14h02.02.498737 +0100,
,,,,,,,,gelb,red,r,0,,,,,,,,,1,3,15,8,165.94451149999986,,,,,,,,,,,,,,,,,165.92721679999977,166.27803010000025,167.07874150000043,167.06247840000015,,,,,,,,,,,,,,,,,,,,,,,,,,,,,,,,,,,167.06249469999966,167.07874150000043,167.07874150000043,167.66150840000046,r,1,0.578592199999548,None,,,,sub-434027,001,2024-03-09_14h01.53.650,stroop_test,2023.2.3,59.94556942307401,2024-03-09 14h02.02.498737 +0100,
,,,,,,,,blau,red,r,0,,,,,,,,,1,4,16,4,167.67921300000035,,,,,,,,,,,,,,,,,167.66191940000044,168.86197559999982,169.6625971000003,169.64791049999985,,,,,,,,,,,,,,,,,,,,,,,,,,,,,,,,,,,169.64792260000013,169.6625971000003,169.6625971000003,170.39878829999998,r,1,0.7303198999998131,None,,,,sub-434027,001,2024-03-09_14h01.53.650,stroop_test,2023.2.3,59.94556942307401,2024-03-09 14h02.02.498737 +0100,
,,,,,,,,gelb,yellow,g,1,,,,,,,,,1,5,17,11,170.41486520000035,,,,,,,,,,,,,,,,,170.39920220000022,171.1973108000002,171.99790180000036,171.9830950000005,,,,,,,,,,,,,,,,,,,,,,,,,,,,,,,,,,,171.98310709999987,171.99790180000036,171.99790180000036,172.6322855999997,g,1,0.6275726999992912,None,,,,sub-434027,001,2024-03-09_14h01.53.650,stroop_test,2023.2.3,59.94556942307401,2024-03-09 14h02.02.498737 +0100,
,,,,,,,,blau,blue,b,1,,,,,,,,,1,6,18,5,172.65003520000027,,,,,,,,,,,,,,,,,172.63268729999982,173.43249410000044,174.23469269999987,174.21832600000016,,,,,,,,,,,,,,,,,,,,,,,,,,,,,,,,,,,174.21833789999982,174.23469269999987,174.23469269999987,174.6855840999997,b,1,0.4462823000003482,None,,,,sub-434027,001,2024-03-09_14h01.53.650,stroop_test,2023.2.3,59.94556942307401,2024-03-09 14h02.02.498737 +0100,
,,,,,,,,gelb,blue,b,0,,,,,,,,,1,7,19,9,174.70016130000022,,,,,,,,,,,,,,,,,174.68599069999982,174.8002064000002,175.6008284999998,175.5860730000004,,,,,,,,,,,,,,,,,,,,,,,,,,,,,,,,,,,175.5860849999999,175.6008284999998,175.6008284999998,176.03515640000023,b,1,0.4326447999992524,None,,,,sub-434027,001,2024-03-09_14h01.53.650,stroop_test,2023.2.3,59.94556942307401,2024-03-09 14h02.02.498737 +0100,
,,,,,,,,rot,yellow,g,0,,,,,,,,,1,8,20,3,176.0528763000002,,,,,,,,,,,,,,,,,176.03557160000037,176.1347136000004,176.93533000000025,176.9205420999997,,,,,,,,,,,,,,,,,,,,,,,,,,,,,,,,,,,176.92055400000027,176.93533000000025,176.93533000000025,177.58642510000027,g,1,0.6419971000004807,None,,,,sub-434027,001,2024-03-09_14h01.53.650,stroop_test,2023.2.3,59.94556942307401,2024-03-09 14h02.02.498737 +0100,
,,,,,,,,rot,red,r,1,,,,,,,,,1,9,21,0,177.60415410000041,,,,,,,,,,,,,,,,,177.5868306000002,178.3865483999998,179.18879519999973,179.17244500000015,,,,,,,,,,,,,,,,,,,,,,,,,,,,,,,,,,,179.1724562999998,179.18879519999973,179.18879519999973,179.6214415000004,r,1,0.42906479999965086,None,,,,sub-434027,001,2024-03-09_14h01.53.650,stroop_test,2023.2.3,59.94556942307401,2024-03-09 14h02.02.498737 +0100,
,,,,,,,,rot,red,r,1,,,,,,,,,1,10,22,1,179.6391321000001,,,,,,,,,,,,,,,,,179.62186240000028,180.82189600000038,181.62419580000005,181.6078137000004,,,,,,,,,,,,,,,,,,,,,,,,,,,,,,,,,,,181.60782589999963,181.62419580000005,181.62419580000005,182.12346979999984,r,1,0.48977759999979753,None,,,,sub-434027,001,2024-03-09_14h01.53.650,stroop_test,2023.2.3,59.94556942307401,2024-03-09 14h02.02.498737 +0100,
,,,,,,,,rot,blue,b,0,,,,,,,,,1,11,23,2,182.14121009999963,,,,,,,,,,,,,,,,,182.12386870000046,182.47484359999999,183.27548190000016,183.2575850000003,,,,,,,,,,,,,,,,,,,,,,,,,,,,,,,,,,,183.25759670000025,183.27548190000016,183.27548190000016,183.74149949999992,b,1,0.46126229999936186,None,,,,sub-434027,001,2024-03-09_14h01.53.650,stroop_test,2023.2.3,59.94556942307401,2024-03-09 14h02.02.498737 +0100,
,,,,,,,,blau,blue,b,1,,,,,,,,,2,0,24,6,183.75928199999998,,,,,,,,,,,,,,,,,183.74193410000044,184.09283649999998,184.8918859000005,184.87713629999962,,,,,,,,,,,,,,,,,,,,,,,,,,,,,,,,,,,184.87714830000004,184.8918859000005,184.8918859000005,185.32626919999984,b,1,0.4208828999999241,None,,,,sub-434027,001,2024-03-09_14h01.53.650,stroop_test,2023.2.3,59.94556942307401,2024-03-09 14h02.02.498737 +0100,
,,,,,,,,rot,blue,b,0,,,,,,,,,2,1,25,2,185.3438653000003,,,,,,,,,,,,,,,,,185.32667029999993,185.42568370000026,186.2263926000005,186.2116317,,,,,,,,,,,,,,,,,,,,,,,,,,,,,,,,,,,186.21164370000042,186.2263926000005,186.2263926000005,186.71219699999983,b,1,0.4786732000002303,None,,,,sub-434027,001,2024-03-09_14h01.53.650,stroop_test,2023.2.3,59.94556942307401,2024-03-09 14h02.02.498737 +0100,
,,,,,,,,rot,red,r,1,,,,,,,,,2,2,26,1,186.72684879999997,,,,,,,,,,,,,,,,,186.71260830000028,187.51238250000006,188.31304590000036,188.29661860000033,,,,,,,,,,,,,,,,,,,,,,,,,,,,,,,,,,,188.2966335000001,188.31304590000036,188.31304590000036,188.83067519999986,r,1,0.5036499000007097,None,,,,sub-434027,001,2024-03-09_14h01.53.650,stroop_test,2023.2.3,59.94556942307401,2024-03-09 14h02.02.498737 +0100,
,,,,,,,,rot,yellow,g,0,,,,,,,,,2,3,27,3,188.84678050000002,,,,,,,,,,,,,,,,,188.83108710000033,189.62916270000005,190.42990259999988,190.41505400000005,,,,,,,,,,,,,,,,,,,,,,,,,,,,,,,,,,,190.41506600000048,190.42990259999988,190.42990259999988,190.88237349999963,g,1,0.4509297000004153,None,,,,sub-434027,001,2024-03-09_14h01.53.650,stroop_test,2023.2.3,59.94556942307401,2024-03-09 14h02.02.498737 +0100,
,,,,,,,,gelb,blue,b,0,,,,,,,,,2,4,28,9,190.89688569999998,,,,,,,,,,,,,,,,,190.8828166000003,192.08117779999975,192.88177910000013,192.8656017000003,,,,,,,,,,,,,,,,,,,,,,,,,,,,,,,,,,,192.86561280000024,192.88177910000013,192.88177910000013,193.39961380000022,b,1,0.5035588999999163,None,,,,sub-434027,001,2024-03-09_14h01.53.650,stroop_test,2023.2.3,59.94556942307401,2024-03-09 14h02.02.498737 +0100,
,,,,,,,,gelb,red,r,0,,,,,,,,,2,5,29,8,193.41726579999977,,,,,,,,,,,,,,,,,193.40001229999962,194.20125759999974,195.0019597999999,194.98553410000022,,,,,,,,,,,,,,,,,,,,,,,,,,,,,,,,,,,194.98554739999963,195.0019597999999,195.0019597999999,195.5345927999997,r,1,0.5192346000003454,None,,,,sub-434027,001,2024-03-09_14h01.53.650,stroop_test,2023.2.3,59.94556942307401,2024-03-09 14h02.02.498737 +0100,
,,,,,,,,rot,red,r,1,,,,,,,,,2,6,30,0,195.55232679999972,,,,,,,,,,,,,,,,,195.53498500000023,195.63578440000038,196.4347727000004,196.42005100000006,,,,,,,,,,,,,,,,,,,,,,,,,,,,,,,,,,,196.42006300000048,196.4347727000004,196.4347727000004,196.9357688,r,1,0.49385779999920487,None,,,,sub-434027,001,2024-03-09_14h01.53.650,stroop_test,2023.2.3,59.94556942307401,2024-03-09 14h02.02.498737 +0100,
,,,,,,,,blau,blue,b,1,,,,,,,,,2,7,31,5,196.9534781000002,,,,,,,,,,,,,,,,,196.9361574000004,197.737486,198.53817080000044,198.52020580000044,,,,,,,,,,,,,,,,,,,,,,,,,,,,,,,,,,,198.5202178999998,198.53817080000044,198.53817080000044,198.9228278999999,b,1,0.3836202000002231,None,,,,sub-434027,001,2024-03-09_14h01.53.650,stroop_test,2023.2.3,59.94556942307401,2024-03-09 14h02.02.498737 +0100,
,,,,,,,,blau,yellow,g,0,,,,,,,,,2,8,32,7,198.93699070000002,,,,,,,,,,,,,,,,,198.92322220000005,199.28721250000035,200.08797669999967,200.07313880000038,,,,,,,,,,,,,,,,,,,,,,,,,,,,,,,,,,,200.07315159999962,200.08797669999967,200.08797669999967,200.62223929999982,b,0,0.521342499999264,None,,,,sub-434027,001,2024-03-09_14h01.53.650,stroop_test,2023.2.3,59.94556942307401,2024-03-09 14h02.02.498737 +0100,
,,,,,,,,blau,red,r,0,,,,,,,,,2,9,33,4,200.63990860000013,,,,,,,,,,,,,,,,,200.62263770000027,200.72179400000005,201.52242209999986,201.50756660000025,,,,,,,,,,,,,,,,,,,,,,,,,,,,,,,,,,,201.50757919999978,201.52242209999986,201.52242209999986,202.5238089000004,r,1,0.9920818000000509,None,,,,sub-434027,001,2024-03-09_14h01.53.650,stroop_test,2023.2.3,59.94556942307401,2024-03-09 14h02.02.498737 +0100,
,,,,,,,,gelb,yellow,g,1,,,,,,,,,2,10,34,11,202.5414754000003,,,,,,,,,,,,,,,,,202.5242113000004,202.87509070000033,203.67409940000016,203.65942059999998,,,,,,,,,,,,,,,,,,,,,,,,,,,,,,,,,,,203.65943530000004,203.67409940000016,203.67409940000016,204.15842229999998,g,1,0.479207100000167,None,,,,sub-434027,001,2024-03-09_14h01.53.650,stroop_test,2023.2.3,59.94556942307401,2024-03-09 14h02.02.498737 +0100,
,,,,,,,,gelb,yellow,g,1,,,,,,,,,2,11,35,10,204.17617690000043,,,,,,,,,,,,,,,,,204.15883500000018,204.50974130000031,205.31041199999981,205.29251980000026,,,,,,,,,,,,,,,,,,,,,,,,,,,,,,,,,,,205.29253140000037,205.31041199999981,205.31041199999981,205.6928899000004,g,1,0.3787858000005144,None,,,,sub-434027,001,2024-03-09_14h01.53.650,stroop_test,2023.2.3,59.94556942307401,2024-03-09 14h02.02.498737 +0100,
,,,,,,,,rot,red,r,1,,,,,,,,,3,0,36,1,205.71076300000004,,,,,,,,,,,,,,,,,205.69328310000037,205.79254219999984,206.5931442000001,206.57851409999967,,,,,,,,,,,,,,,,,,,,,,,,,,,,,,,,,,,206.57852739999998,206.5931442000001,206.5931442000001,207.14588090000052,r,1,0.5441378999994413,None,,,,sub-434027,001,2024-03-09_14h01.53.650,stroop_test,2023.2.3,59.94556942307401,2024-03-09 14h02.02.498737 +0100,
,,,,,,,,gelb,yellow,g,1,,,,,,,,,3,1,37,11,207.1604468000005,,,,,,,,,,,,,,,,,207.14630269999998,207.9610831,208.76166060000014,208.74691170000006,,,,,,,,,,,,,,,,,,,,,,,,,,,,,,,,,,,208.74692370000048,208.76166060000014,208.76166060000014,209.27931489999992,g,1,0.503452500000094,None,,,,sub-434027,001,2024-03-09_14h01.53.650,stroop_test,2023.2.3,59.94556942307401,2024-03-09 14h02.02.498737 +0100,
,,,,,,,,gelb,yellow,g,1,,,,,,,,,3,2,38,10,209.29556860000048,,,,,,,,,,,,,,,,,209.2797584,209.6291366000005,210.42977119999978,210.41493580000042,,,,,,,,,,,,,,,,,,,,,,,,,,,,,,,,,,,210.41494770000008,210.42977119999978,210.42977119999978,210.93066,g,1,0.49123430000054213,None,,,,sub-434027,001,2024-03-09_14h01.53.650,stroop_test,2023.2.3,59.94556942307401,2024-03-09 14h02.02.498737 +0100,
,,,,,,,,blau,blue,b,1,,,,,,,,,3,3,39,5,210.9484548999999,,,,,,,,,,,,,,,,,210.9310617000001,211.7324497999998,212.53314479999972,212.51668150000023,,,,,,,,,,,,,,,,,,,,,,,,,,,,,,,,,,,212.51669440000023,212.53314479999972,212.53314479999972,213.01744080000026,b,1,0.4677747999994608,None,,,,sub-434027,001,2024-03-09_14h01.53.650,stroop_test,2023.2.3,59.94556942307401,2024-03-09 14h02.02.498737 +0100,
,,,,,,,,rot,red,r,1,,,,,,,,,3,4,40,0,213.03209289999995,,,,,,,,,,,,,,,,,213.01786249999986,213.1168858000001,213.91755660000035,213.89966540000023,,,,,,,,,,,,,,,,,,,,,,,,,,,,,,,,,,,213.89967720000004,213.91755660000035,213.91755660000035,214.43360360000042,r,1,0.5001578999999765,None,,,,sub-434027,001,2024-03-09_14h01.53.650,stroop_test,2023.2.3,59.94556942307401,2024-03-09 14h02.02.498737 +0100,
,,,,,,,,blau,blue,b,1,,,,,,,,,3,5,41,6,214.45136809999985,,,,,,,,,,,,,,,,,214.43401780000022,215.23533099999986,216.03437600000052,216.0195973,,,,,,,,,,,,,,,,,,,,,,,,,,,,,,,,,,,216.01960899999995,216.03437600000052,216.03437600000052,216.5540106999997,b,1,0.5186442000003808,None,,,,sub-434027,001,2024-03-09_14h01.53.650,stroop_test,2023.2.3,59.94556942307401,2024-03-09 14h02.02.498737 +0100,
,,,,,,,,rot,blue,b,0,,,,,,,,,3,6,42,2,216.56821820000005,,,,,,,,,,,,,,,,,216.55442399999993,216.66835900000024,217.46888109999963,217.4551108000005,,,,,,,,,,,,,,,,,,,,,,,,,,,,,,,,,,,217.4551352999997,217.46888109999963,217.46888109999963,217.98682329999974,b,1,0.5086602000001221,None,,,,sub-434027,001,2024-03-09_14h01.53.650,stroop_test,2023.2.3,59.94556942307401,2024-03-09 14h02.02.498737 +0100,
,,,,,,,,gelb,red,r,0,,,,,,,,,3,7,43,8,218.00430489999962,,,,,,,,,,,,,,,,,217.9872465999997,218.78672340000048,219.58739820000028,219.57098440000027,,,,,,,,,,,,,,,,,,,,,,,,,,,,,,,,,,,219.57100590000027,219.58739820000028,219.58739820000028,220.27332800000022,r,1,0.6692436000002999,None,,,,sub-434027,001,2024-03-09_14h01.53.650,stroop_test,2023.2.3,59.94556942307401,2024-03-09 14h02.02.498737 +0100,
,,,,,,,,blau,yellow,g,0,,,,,,,,,3,8,44,7,220.28795119999995,,,,,,,,,,,,,,,,,220.27374750000035,220.6215345999999,221.42379150000033,221.4074542999997,,,,,,,,,,,,,,,,,,,,,,,,,,,,,,,,,,,221.40746610000042,221.42379150000033,221.42379150000033,222.05665680000038,g,1,0.6185383000001821,None,,,,sub-434027,001,2024-03-09_14h01.53.650,stroop_test,2023.2.3,59.94556942307401,2024-03-09 14h02.02.498737 +0100,
,,,,,,,,blau,red,r,0,,,,,,,,,3,9,45,4,222.07434569999987,,,,,,,,,,,,,,,,,222.05707200000052,222.8567935000001,223.6574741000004,223.6426604999997,,,,,,,,,,,,,,,,,,,,,,,,,,,,,,,,,,,223.64267240000027,223.6574741000004,223.6574741000004,224.2918227,r,1,0.6314817000002222,None,,,,sub-434027,001,2024-03-09_14h01.53.650,stroop_test,2023.2.3,59.94556942307401,2024-03-09 14h02.02.498737 +0100,
,,,,,,,,rot,yellow,g,0,,,,,,,,,3,10,46,3,224.30954099999963,,,,,,,,,,,,,,,,,224.2922223000005,225.4922234000005,226.2929524000001,226.2780816000004,,,,,,,,,,,,,,,,,,,,,,,,,,,,,,,,,,,226.27809369999977,226.2929524000001,226.2929524000001,226.9606230999998,g,1,0.6602401999998619,None,,,,sub-434027,001,2024-03-09_14h01.53.650,stroop_test,2023.2.3,59.94556942307401,2024-03-09 14h02.02.498737 +0100,
,,,,,,,,gelb,blue,b,0,,,,,,,,,3,11,47,9,226.97837009999967,,,,,,,,,,,,,,,,,226.96102400000018,227.76081450000038,228.56146340000032,228.54668740000034,,,,,,,,,,,,,,,,,,,,,,,,,,,,,,,,,,,228.54669970000032,228.56146340000032,228.56146340000032,229.18080129999998,b,1,0.6079362000000401,None,,,,sub-434027,001,2024-03-09_14h01.53.650,stroop_test,2023.2.3,59.94556942307401,2024-03-09 14h02.02.498737 +0100,
,,,,,,,,blau,red,r,0,,,,,,,,,4,0,48,4,229.19548589999977,,,,,,,,,,,,,,,,,229.18123379999997,229.97926689999986,230.77983760000006,230.76375240000016,,,,,,,,,,,,,,,,,,,,,,,,,,,,,,,,,,,230.7637635000001,230.77983760000006,230.77983760000006,232.06654549999985,r,1,1.2850569000001997,None,,,,sub-434027,001,2024-03-09_14h01.53.650,stroop_test,2023.2.3,59.94556942307401,2024-03-09 14h02.02.498737 +0100,
,,,,,,,,rot,red,r,1,,,,,,,,,4,1,49,0,232.08263629999965,,,,,,,,,,,,,,,,,232.06694760000028,233.2669950999998,234.06588079999983,234.0512776000005,,,,,,,,,,,,,,,,,,,,,,,,,,,,,,,,,,,234.05128960000002,234.06588079999983,234.06588079999983,234.83420360000036,r,1,0.7674039000003177,None,,,,sub-434027,001,2024-03-09_14h01.53.650,stroop_test,2023.2.3,59.94556942307401,2024-03-09 14h02.02.498737 +0100,
,,,,,,,,rot,red,r,1,,,,,,,,,4,2,50,1,234.8516443999997,,,,,,,,,,,,,,,,,234.8346246000001,234.9349903000002,235.7341919999999,235.71935370000028,,,,,,,,,,,,,,,,,,,,,,,,,,,,,,,,,,,235.7193655000001,235.7341919999999,235.7341919999999,236.30173040000045,r,1,0.5547237999999197,None,,,,sub-434027,001,2024-03-09_14h01.53.650,stroop_test,2023.2.3,59.94556942307401,2024-03-09 14h02.02.498737 +0100,
,,,,,,,,gelb,yellow,g,1,,,,,,,,,4,3,51,11,236.3195166000005,,,,,,,,,,,,,,,,,236.30212889999984,237.50383429999965,238.30443449999984,238.2865165000003,,,,,,,,,,,,,,,,,,,,,,,,,,,,,,,,,,,238.2865281000004,238.30443449999984,238.30443449999984,238.95549500000016,g,1,0.6406114000001253,None,,,,sub-434027,001,2024-03-09_14h01.53.650,stroop_test,2023.2.3,59.94556942307401,2024-03-09 14h02.02.498737 +0100,
,,,,,,,,blau,blue,b,1,,,,,,,,,4,4,52,6,238.97171849999995,,,,,,,,,,,,,,,,,238.95589870000003,239.05347830000028,239.85418409999966,239.83942970000044,,,,,,,,,,,,,,,,,,,,,,,,,,,,,,,,,,,239.8394416000001,239.85418409999966,239.85418409999966,240.37186070000007,b,1,0.507409099999677,None,,,,sub-434027,001,2024-03-09_14h01.53.650,stroop_test,2023.2.3,59.94556942307401,2024-03-09 14h02.02.498737 +0100,
,,,,,,,,rot,yellow,g,0,,,,,,,,,4,5,53,3,240.38959799999975,,,,,,,,,,,,,,,,,240.37227950000033,241.57383759999993,242.37452420000045,242.35811279999962,,,,,,,,,,,,,,,,,,,,,,,,,,,,,,,,,,,242.35812480000004,242.37452420000045,242.37452420000045,243.2575165999997,g,1,0.8744635000002745,None,,,,sub-434027,001,2024-03-09_14h01.53.650,stroop_test,2023.2.3,59.94556942307401,2024-03-09 14h02.02.498737 +0100,
,,,,,,,,rot,blue,b,0,,,,,,,,,4,6,54,2,243.27529119999963,,,,,,,,,,,,,,,,,243.25791720000052,243.60884309999983,244.40947589999996,244.3915705999998,,,,,,,,,,,,,,,,,,,,,,,,,,,,,,,,,,,244.3915820000002,244.40947589999996,244.40947589999996,244.8773768000001,b,1,0.4631846000002042,None,,,,sub-434027,001,2024-03-09_14h01.53.650,stroop_test,2023.2.3,59.94556942307401,2024-03-09 14h02.02.498737 +0100,
,,,,,,,,gelb,yellow,g,1,,,,,,,,,4,7,55,10,244.89175650000016,,,,,,,,,,,,,,,,,244.87782249999964,244.9918147999997,245.79235909999989,245.77765689999978,,,,,,,,,,,,,,,,,,,,,,,,,,,,,,,,,,,245.7776690999999,245.79235909999989,245.79235909999989,246.31160999999975,g,1,0.5126461999998355,None,,,,sub-434027,001,2024-03-09_14h01.53.650,stroop_test,2023.2.3,59.94556942307401,2024-03-09 14h02.02.498737 +0100,
,,,,,,,,blau,blue,b,1,,,,,,,,,4,8,56,5,246.32781090000026,,,,,,,,,,,,,,,,,246.3120428000002,247.11173789999975,247.9124142999999,247.89455980000002,,,,,,,,,,,,,,,,,,,,,,,,,,,,,,,,,,,247.89457149999998,247.9124142999999,247.9124142999999,248.36178019999988,b,1,0.4403799000001527,None,,,,sub-434027,001,2024-03-09_14h01.53.650,stroop_test,2023.2.3,59.94556942307401,2024-03-09 14h02.02.498737 +0100,
,,,,,,,,gelb,red,r,0,,,,,,,,,4,9,57,8,248.3794895000001,,,,,,,,,,,,,,,,,248.36222569999973,249.16189790000044,249.96244490000026,249.9478356999998,,,,,,,,,,,,,,,,,,,,,,,,,,,,,,,,,,,249.9478478000001,249.96244490000026,249.96244490000026,250.54854890000024,r,1,0.5744937999998001,None,,,,sub-434027,001,2024-03-09_14h01.53.650,stroop_test,2023.2.3,59.94556942307401,2024-03-09 14h02.02.498737 +0100,
,,,,,,,,blau,yellow,g,0,,,,,,,,,4,10,58,7,250.56462740000006,,,,,,,,,,,,,,,,,250.54897979999987,250.6464506000002,251.44871700000022,251.43076480000036,,,,,,,,,,,,,,,,,,,,,,,,,,,,,,,,,,,251.43077650000032,251.44871700000022,251.44871700000022,252.14823230000002,g,1,0.6960510999997496,None,,,,sub-434027,001,2024-03-09_14h01.53.650,stroop_test,2023.2.3,59.94556942307401,2024-03-09 14h02.02.498737 +0100,
,,,,,,,,gelb,blue,b,0,,,,,,,,,4,11,59,9,252.1643498000003,,,,,,,,,,,,,,,,,252.1486616000002,252.9499721000002,253.75063610000052,253.73424710000018,,,,,,,,,,,,,,,,,,,,,,,,,,,,,,,,,,,253.73425899999984,253.75063610000052,253.75063610000052,254.19991899999968,b,1,0.44280410000010306,None,,,,sub-434027,001,2024-03-09_14h01.53.650,stroop_test,2023.2.3,59.94556942307401,2024-03-09 14h02.02.498737 +0100,
,,,,,,,,gelb,blue,b,0,,,,,,,,,5,0,60,9,254.21763850000025,,,,,,,,,,,,,,,,,254.2003295000004,254.29952839999987,255.10027040000023,255.0853545,,,,,,,,,,,,,,,,,,,,,,,,,,,,,,,,,,,255.08536639999966,255.10027040000023,255.10027040000023,255.55259920000026,b,1,0.43726169999990816,None,,,,sub-434027,001,2024-03-09_14h01.53.650,stroop_test,2023.2.3,59.94556942307401,2024-03-09 14h02.02.498737 +0100,
,,,,,,,,gelb,red,r,0,,,,,,,,,5,1,61,8,255.56877499999973,,,,,,,,,,,,,,,,,255.5530187000004,255.66732070000035,256.4684164999999,256.4531847999997,,,,,,,,,,,,,,,,,,,,,,,,,,,,,,,,,,,256.4531973000003,256.4684164999999,256.4684164999999,257.0539254000005,r,1,0.5729815000004237,None,,,,sub-434027,001,2024-03-09_14h01.53.650,stroop_test,2023.2.3,59.94556942307401,2024-03-09 14h02.02.498737 +0100,
,,,,,,,,rot,yellow,g,0,,,,,,,,,5,2,62,3,257.0685020000001,,,,,,,,,,,,,,,,,257.0543346000004,257.85249099999965,258.65305350000017,258.6382934000003,,,,,,,,,,,,,,,,,,,,,,,,,,,,,,,,,,,258.6383052000001,258.65305350000017,258.65305350000017,259.505991,g,1,0.844071299999996,None,,,,sub-434027,001,2024-03-09_14h01.53.650,stroop_test,2023.2.3,59.94556942307401,2024-03-09 14h02.02.498737 +0100,
,,,,,,,,blau,blue,b,1,,,,,,,,,5,3,63,5,259.52042640000036,,,,,,,,,,,,,,,,,259.5064070999997,260.3226678000001,261.1216912,261.10551680000026,,,,,,,,,,,,,,,,,,,,,,,,,,,,,,,,,,,261.1055271000005,261.1216912,261.1216912,261.58949459999985,b,1,0.4636215999998967,None,,,,sub-434027,001,2024-03-09_14h01.53.650,stroop_test,2023.2.3,59.94556942307401,2024-03-09 14h02.02.498737 +0100,
,,,,,,,,blau,yellow,g,0,,,,,,,,,5,4,64,7,261.6071899999997,,,,,,,,,,,,,,,,,261.58989980000024,262.78986910000003,263.5905388000001,263.57570719999967,,,,,,,,,,,,,,,,,,,,,,,,,,,,,,,,,,,263.57571949999965,263.5905388000001,263.5905388000001,264.74364309999964,g,1,1.1463276999993468,None,,,,sub-434027,001,2024-03-09_14h01.53.650,stroop_test,2023.2.3,59.94556942307401,2024-03-09 14h02.02.498737 +0100,
,,,,,,,,blau,blue,b,1,,,,,,,,,5,5,65,6,264.75815200000034,,,,,,,,,,,,,,,,,264.7440566000005,265.56042830000024,266.35945900000024,266.34473700000035,,,,,,,,,,,,,,,,,,,,,,,,,,,,,,,,,,,266.3447484999997,266.35945900000024,266.35945900000024,266.76034419999996,b,1,0.38610310000058234,None,,,,sub-434027,001,2024-03-09_14h01.53.650,stroop_test,2023.2.3,59.94556942307401,2024-03-09 14h02.02.498737 +0100,
,,,,,,,,blau,red,r,0,,,,,,,,,5,6,66,4,266.7780647999998,,,,,,,,,,,,,,,,,266.7607413000005,266.86151940000036,267.6604846,267.64428899999984,,,,,,,,,,,,,,,,,,,,,,,,,,,,,,,,,,,267.6443011000001,267.6604846,267.6604846,268.27982450000036,r,1,0.6050326999993558,None,,,,sub-434027,001,2024-03-09_14h01.53.650,stroop_test,2023.2.3,59.94556942307401,2024-03-09 14h02.02.498737 +0100,
,,,,,,,,gelb,yellow,g,1,,,,,,,,,5,7,67,11,268.2944210000005,,,,,,,,,,,,,,,,,268.2802408999996,269.07995819999996,269.87894959999994,269.86436090000007,,,,,,,,,,,,,,,,,,,,,,,,,,,,,,,,,,,269.86437230000047,269.87894959999994,269.87894959999994,270.46340969999983,g,1,0.578361799999584,None,,,,sub-434027,001,2024-03-09_14h01.53.650,stroop_test,2023.2.3,59.94556942307401,2024-03-09 14h02.02.498737 +0100,
,,,,,,,,rot,red,r,1,,,,,,,,,5,8,68,0,270.4811136999997,,,,,,,,,,,,,,,,,270.4638144999999,271.2651605000001,272.08079030000044,272.0661876000004,,,,,,,,,,,,,,,,,,,,,,,,,,,,,,,,,,,272.06619899999987,272.08079030000044,272.08079030000044,272.6502081999997,r,1,0.5524577000005593,None,,,,sub-434027,001,2024-03-09_14h01.53.650,stroop_test,2023.2.3,59.94556942307401,2024-03-09 14h02.02.498737 +0100,
,,,,,,,,rot,blue,b,0,,,,,,,,,5,9,69,2,272.66474670000025,,,,,,,,,,,,,,,,,272.6506282,273.4653894000003,274.26605629999995,274.25128310000036,,,,,,,,,,,,,,,,,,,,,,,,,,,,,,,,,,,274.2512950999999,274.26605629999995,274.26605629999995,274.91681940000035,b,1,0.6468986999998378,None,,,,sub-434027,001,2024-03-09_14h01.53.650,stroop_test,2023.2.3,59.94556942307401,2024-03-09 14h02.02.498737 +0100,
,,,,,,,,rot,red,r,1,,,,,,,,,5,10,70,1,274.9348422000003,,,,,,,,,,,,,,,,,274.9172088000005,275.71882470000037,276.5195155000001,276.50265880000006,,,,,,,,,,,,,,,,,,,,,,,,,,,,,,,,,,,276.5026869000003,276.5195155000001,276.5195155000001,277.0355304000004,r,1,0.5052913999998054,None,,,,sub-434027,001,2024-03-09_14h01.53.650,stroop_test,2023.2.3,59.94556942307401,2024-03-09 14h02.02.498737 +0100,
,,,,,,,,gelb,yellow,g,1,,,,,,,,,5,11,71,10,277.05329789999996,,,,,,,,,,,,,,,,,277.0359263,277.1350953000001,277.9372733,277.91934949999995,,,,,,,,,,,,,,,,,,,,,,,,,,,,,,,,,,,277.9193608000005,277.9372733,277.9372733,278.58695270000044,g,1,0.6400478999994448,None,,,,sub-434027,001,2024-03-09_14h01.53.650,stroop_test,2023.2.3,59.94556942307401,2024-03-09 14h02.02.498737 +0100,
,,,,,,,,blau,red,r,0,,,,,,,,,6,0,72,4,278.6045640000002,,,,,,,,,,,,,,,,,278.58734730000015,279.3885108000004,280.18764120000014,280.17283899999984,,,,,,,,,,,,,,,,,,,,,,,,,,,,,,,,,,,280.17285100000026,280.18764120000014,280.18764120000014,280.8069691999999,r,1,0.6139413999999306,None,,,,sub-434027,001,2024-03-09_14h01.53.650,stroop_test,2023.2.3,59.94556942307401,2024-03-09 14h02.02.498737 +0100,
,,,,,,,,blau,blue,b,1,,,,,,,,,6,1,73,5,280.8215031,,,,,,,,,,,,,,,,,280.80739559999984,280.9231754000002,281.7222290999998,281.70586639999965,,,,,,,,,,,,,,,,,,,,,,,,,,,,,,,,,,,281.7058785999998,281.7222290999998,281.7222290999998,282.28977790000044,b,1,0.5587423999995735,None,,,,sub-434027,001,2024-03-09_14h01.53.650,stroop_test,2023.2.3,59.94556942307401,2024-03-09 14h02.02.498737 +0100,
,,,,,,,,rot,red,r,1,,,,,,,,,6,2,74,1,282.3076264000001,,,,,,,,,,,,,,,,,282.2901738999999,282.3910173000004,283.1899843000001,283.17363170000044,,,,,,,,,,,,,,,,,,,,,,,,,,,,,,,,,,,283.17364439999983,283.1899843000001,283.1899843000001,283.7244480999998,r,1,0.5314692000001742,None,,,,sub-434027,001,2024-03-09_14h01.53.650,stroop_test,2023.2.3,59.94556942307401,2024-03-09 14h02.02.498737 +0100,
,,,,,,,,gelb,blue,b,0,,,,,,,,,6,3,75,9,283.74211470000046,,,,,,,,,,,,,,,,,283.7248357999997,284.9249546000001,285.72546990000046,285.710771,,,,,,,,,,,,,,,,,,,,,,,,,,,,,,,,,,,285.71078300000045,285.72546990000046,285.72546990000046,286.2114836999999,b,1,0.46784890000071755,None,,,,sub-434027,001,2024-03-09_14h01.53.650,stroop_test,2023.2.3,59.94556942307401,2024-03-09 14h02.02.498737 +0100,
,,,,,,,,rot,yellow,g,0,,,,,,,,,6,4,76,3,286.22760910000034,,,,,,,,,,,,,,,,,286.21194860000014,286.30921390000003,287.1098738999999,287.0951580000001,,,,,,,,,,,,,,,,,,,,,,,,,,,,,,,,,,,287.09516950000034,287.1098738999999,287.1098738999999,287.8611264000001,r,0,0.7475001000002521,None,,,,sub-434027,001,2024-03-09_14h01.53.650,stroop_test,2023.2.3,59.94556942307401,2024-03-09 14h02.02.498737 +0100,
,,,,,,,,gelb,red,r,0,,,,,,,,,6,5,77,8,287.87894460000007,,,,,,,,,,,,,,,,,287.8615399999999,288.6612777999999,289.4618849999997,289.44716849999986,,,,,,,,,,,,,,,,,,,,,,,,,,,,,,,,,,,289.44718040000043,289.4618849999997,289.4618849999997,290.2480390999999,r,1,0.7712376999998014,None,,,,sub-434027,001,2024-03-09_14h01.53.650,stroop_test,2023.2.3,59.94556942307401,2024-03-09 14h02.02.498737 +0100,
,,,,,,,,blau,yellow,g,0,,,,,,,,,6,6,78,7,290.26262769999994,,,,,,,,,,,,,,,,,290.24843820000024,291.04817770000045,291.84723920000033,291.8309976999999,,,,,,,,,,,,,,,,,,,,,,,,,,,,,,,,,,,291.8310108000005,291.84723920000033,291.84723920000033,292.8836183000003,g,1,1.0260613000000376,None,,,,sub-434027,001,2024-03-09_14h01.53.650,stroop_test,2023.2.3,59.94556942307401,2024-03-09 14h02.02.498737 +0100,
,,,,,,,,gelb,yellow,g,1,,,,,,,,,6,7,79,11,292.89814920000026,,,,,,,,,,,,,,,,,292.8840349000002,293.69882830000006,294.4994703000002,294.4847195000002,,,,,,,,,,,,,,,,,,,,,,,,,,,,,,,,,,,294.4847314999997,294.4994703000002,294.4994703000002,295.0019791000004,g,1,0.4861431999997876,None,,,,sub-434027,001,2024-03-09_14h01.53.650,stroop_test,2023.2.3,59.94556942307401,2024-03-09 14h02.02.498737 +0100,
,,,,,,,,gelb,yellow,g,1,,,,,,,,,6,8,80,10,295.01820529999986,,,,,,,,,,,,,,,,,295.0023755000002,295.3517356000002,296.16754740000033,296.15270560000044,,,,,,,,,,,,,,,,,,,,,,,,,,,,,,,,,,,296.15271829999983,296.16754740000033,296.16754740000033,296.7685438999997,g,1,0.5932917000000089,None,,,,sub-434027,001,2024-03-09_14h01.53.650,stroop_test,2023.2.3,59.94556942307401,2024-03-09 14h02.02.498737 +0100,
,,,,,,,,blau,blue,b,1,,,,,,,,,6,9,81,6,296.7863317000001,,,,,,,,,,,,,,,,,296.7689399000001,297.5688,298.37096219999967,298.35463249999975,,,,,,,,,,,,,,,,,,,,,,,,,,,,,,,,,,,298.35464370000045,298.37096219999967,298.37096219999967,298.7717800999999,b,1,0.39898819999962143,None,,,,sub-434027,001,2024-03-09_14h01.53.650,stroop_test,2023.2.3,59.94556942307401,2024-03-09 14h02.02.498737 +0100,
,,,,,,,,rot,red,r,1,,,,,,,,,6,10,82,0,298.7879840000005,,,,,,,,,,,,,,,,,298.77219349999996,299.58700359999966,300.3876435000002,300.3728646999998,,,,,,,,,,,,,,,,,,,,,,,,,,,,,,,,,,,300.3728772000004,300.3876435000002,300.3876435000002,300.75531169999977,r,1,0.35703620000003866,None,,,,sub-434027,001,2024-03-09_14h01.53.650,stroop_test,2023.2.3,59.94556942307401,2024-03-09 14h02.02.498737 +0100,
,,,,,,,,rot,blue,b,0,,,,,,,,,6,11,83,2,300.77135520000047,,,,,,,,,,,,,,,,,300.7557353000002,301.1065698000002,301.90723700000035,301.89080699999977,,,,,,,,,,,,,,,,,,,,,,,,,,,,,,,,,,,301.8908190000002,301.90723700000035,301.90723700000035,302.4414529000005,b,1,0.5256769999996322,None,,,,sub-434027,001,2024-03-09_14h01.53.650,stroop_test,2023.2.3,59.94556942307401,2024-03-09 14h02.02.498737 +0100,
,,,,,,,,rot,yellow,g,0,,,,,,,,,7,0,84,3,302.4560829000002,,,,,,,,,,,,,,,,,302.4418604000002,303.24159150000014,304.0422943000003,304.02433910000036,,,,,,,,,,,,,,,,,,,,,,,,,,,,,,,,,,,304.02435070000047,304.0422943000003,304.0422943000003,304.8586538999998,g,1,0.8073859999994966,None,,,,sub-434027,001,2024-03-09_14h01.53.650,stroop_test,2023.2.3,59.94556942307401,2024-03-09 14h02.02.498737 +0100,
,,,,,,,,gelb,blue,b,0,,,,,,,,,7,1,85,9,304.87634830000025,,,,,,,,,,,,,,,,,304.85905790000015,305.6587930000005,306.4593265000003,306.44461880000017,,,,,,,,,,,,,,,,,,,,,,,,,,,,,,,,,,,306.44463090000045,306.4593265000003,306.4593265000003,306.9939508999996,b,1,0.5336181000002398,None,,,,sub-434027,001,2024-03-09_14h01.53.650,stroop_test,2023.2.3,59.94556942307401,2024-03-09 14h02.02.498737 +0100,
,,,,,,,,blau,red,r,0,,,,,,,,,7,2,86,4,307.0114771999997,,,,,,,,,,,,,,,,,306.9943667999996,307.79547,308.5945786000002,308.57973159999983,,,,,,,,,,,,,,,,,,,,,,,,,,,,,,,,,,,308.5797468999999,308.5945786000002,308.5945786000002,309.1470231000003,r,1,0.534452699999747,None,,,,sub-434027,001,2024-03-09_14h01.53.650,stroop_test,2023.2.3,59.94556942307401,2024-03-09 14h02.02.498737 +0100,
,,,,,,,,gelb,red,r,0,,,,,,,,,7,3,87,8,309.1616452999997,,,,,,,,,,,,,,,,,309.14743240000007,309.2618084000005,310.0624595999998,310.04756460000044,,,,,,,,,,,,,,,,,,,,,,,,,,,,,,,,,,,310.0475766999998,310.0624595999998,310.0624595999998,310.4965879000001,r,1,0.4189280000000508,None,,,,sub-434027,001,2024-03-09_14h01.53.650,stroop_test,2023.2.3,59.94556942307401,2024-03-09 14h02.02.498737 +0100,
,,,,,,,,rot,red,r,1,,,,,,,,,7,4,88,0,310.51435610000044,,,,,,,,,,,,,,,,,310.496991,311.6971016999996,312.49928460000046,312.4830750000001,,,,,,,,,,,,,,,,,,,,,,,,,,,,,,,,,,,312.4830880999998,312.49928460000046,312.49928460000046,313.23383470000044,r,1,0.7181998999994903,None,,,,sub-434027,001,2024-03-09_14h01.53.650,stroop_test,2023.2.3,59.94556942307401,2024-03-09 14h02.02.498737 +0100,
,,,,,,,,gelb,yellow,g,1,,,,,,,,,7,5,89,11,313.24994849999985,,,,,,,,,,,,,,,,,313.23425700000007,314.43265690000044,315.2349924,315.21851810000044,,,,,,,,,,,,,,,,,,,,,,,,,,,,,,,,,,,315.2185306000001,315.2349924,315.2349924,315.7859543000004,g,1,0.5354339999994409,None,,,,sub-434027,001,2024-03-09_14h01.53.650,stroop_test,2023.2.3,59.94556942307401,2024-03-09 14h02.02.498737 +0100,
,,,,,,,,blau,blue,b,1,,,,,,,,,7,6,90,5,315.80046140000013,,,,,,,,,,,,,,,,,315.78639099999964,315.90059850000034,316.7028074,316.68640570000025,,,,,,,,,,,,,,,,,,,,,,,,,,,,,,,,,,,316.6864185000004,316.7028074,316.7028074,317.23556480000025,b,1,0.5307189000004655,None,,,,sub-434027,001,2024-03-09_14h01.53.650,stroop_test,2023.2.3,59.94556942307401,2024-03-09 14h02.02.498737 +0100,
,,,,,,,,blau,blue,b,1,,,,,,,,,7,7,91,6,317.2532458000005,,,,,,,,,,,,,,,,,317.2359604000003,318.0372702000004,318.8379152999996,318.8199045000001,,,,,,,,,,,,,,,,,,,,,,,,,,,,,,,,,,,318.81991689999995,318.8379152999996,318.8379152999996,319.33886580000035,b,1,0.49124860000029,None,,,,sub-434027,001,2024-03-09_14h01.53.650,stroop_test,2023.2.3,59.94556942307401,2024-03-09 14h02.02.498737 +0100,
,,,,,,,,blau,yellow,g,0,,,,,,,,,7,8,92,7,319.3533984000005,,,,,,,,,,,,,,,,,319.33927570000014,319.43839320000006,320.23918330000015,320.22114090000014,,,,,,,,,,,,,,,,,,,,,,,,,,,,,,,,,,,320.2211527999998,320.23918330000015,320.23918330000015,320.9887365000004,g,1,0.7455775999997059,None,,,,sub-434027,001,2024-03-09_14h01.53.650,stroop_test,2023.2.3,59.94556942307401,2024-03-09 14h02.02.498737 +0100,
,,,,,,,,rot,red,r,1,,,,,,,,,7,9,93,1,321.0063828000002,,,,,,,,,,,,,,,,,320.9891657999997,321.08819680000033,321.8888133999999,321.87406420000025,,,,,,,,,,,,,,,,,,,,,,,,,,,,,,,,,,,321.87407729999995,321.8888133999999,321.8888133999999,322.47495590000017,r,1,0.5685547999992195,None,,,,sub-434027,001,2024-03-09_14h01.53.650,stroop_test,2023.2.3,59.94556942307401,2024-03-09 14h02.02.498737 +0100,
,,,,,,,,rot,blue,b,0,,,,,,,,,7,10,94,2,322.48939750000045,,,,,,,,,,,,,,,,,322.47535960000005,323.29005489999963,324.0907597000005,324.0759286000002,,,,,,,,,,,,,,,,,,,,,,,,,,,,,,,,,,,324.0759404999999,324.0907597000005,324.0907597000005,324.9920337000003,b,1,0.8946501999998873,None,,,,sub-434027,001,2024-03-09_14h01.53.650,stroop_test,2023.2.3,59.94556942307401,2024-03-09 14h02.02.498737 +0100,
,,,,,,,,gelb,yellow,g,1,,,,,,,,,7,11,95,10,325.0096730000005,,,,,,,,,,,,,,,,,324.9924253999998,325.3433094000002,326.1422948999998,326.12616160000016,,,,,,,,,,,,,,,,,,,,,,,,,,,,,,,,,,,326.1261727000001,326.1422948999998,326.1422948999998,326.86011580000013,g,1,0.7066390999998475,None,,,,sub-434027,001,2024-03-09_14h01.53.650,stroop_test,2023.2.3,59.94556942307401,2024-03-09 14h02.02.498737 +0100,
,,,,,,,,gelb,yellow,g,1,,,,,,,,,8,0,96,11,326.8779284000002,,,,,,,,,,,,,,,,,326.8605156000003,328.06080310000016,328.8612948,328.8465349999997,,,,,,,,,,,,,,,,,,,,,,,,,,,,,,,,,,,328.8465471999998,328.8612948,328.8612948,329.2622065000005,g,1,0.38826289999997243,None,,,,sub-434027,001,2024-03-09_14h01.53.650,stroop_test,2023.2.3,59.94556942307401,2024-03-09 14h02.02.498737 +0100,
,,,,,,,,blau,blue,b,1,,,,,,,,,8,1,97,5,329.27993100000003,,,,,,,,,,,,,,,,,329.2626000999999,329.36169400000017,330.16238859999976,330.14757740000005,,,,,,,,,,,,,,,,,,,,,,,,,,,,,,,,,,,330.1475896000002,330.16238859999976,330.16238859999976,330.6798595,b,1,0.5028087000000596,None,,,,sub-434027,001,2024-03-09_14h01.53.650,stroop_test,2023.2.3,59.94556942307401,2024-03-09 14h02.02.498737 +0100,
,,,,,,,,rot,red,r,1,,,,,,,,,8,2,98,1,330.6961951000003,,,,,,,,,,,,,,,,,330.6802759000002,331.0313935000004,331.8304003000003,331.81421880000016,,,,,,,,,,,,,,,,,,,,,,,,,,,,,,,,,,,331.8142297000004,331.8304003000003,331.8304003000003,332.34794630000033,r,1,0.5147907000000487,None,,,,sub-434027,001,2024-03-09_14h01.53.650,stroop_test,2023.2.3,59.94556942307401,2024-03-09 14h02.02.498737 +0100,
,,,,,,,,blau,yellow,g,0,,,,,,,,,8,3,99,7,332.3642240999998,,,,,,,,,,,,,,,,,332.3483646000004,333.5487073000004,334.35080449999987,334.3329898000002,,,,,,,,,,,,,,,,,,,,,,,,,,,,,,,,,,,334.33300169999984,334.35080449999987,334.35080449999987,335.11859540000023,g,1,0.7619759999997768,None,,,,sub-434027,001,2024-03-09_14h01.53.650,stroop_test,2023.2.3,59.94556942307401,2024-03-09 14h02.02.498737 +0100,
,,,,,,,,rot,blue,b,0,,,,,,,,,8,4,100,2,335.1332130999999,,,,,,,,,,,,,,,,,335.11900930000047,335.46840299999985,336.2673242000001,336.25268229999983,,,,,,,,,,,,,,,,,,,,,,,,,,,,,,,,,,,336.25269370000024,336.2673242000001,336.2673242000001,336.753882,b,1,0.4855752000003122,None,,,,sub-434027,001,2024-03-09_14h01.53.650,stroop_test,2023.2.3,59.94556942307401,2024-03-09 14h02.02.498737 +0100,
,,,,,,,,rot,yellow,g,0,,,,,,,,,8,5,101,3,336.7679102000002,,,,,,,,,,,,,,,,,336.7542886000001,337.5685266999999,338.3707555000001,338.35285269999986,,,,,,,,,,,,,,,,,,,,,,,,,,,,,,,,,,,338.3528673999999,338.3707555000001,338.3707555000001,339.0201589999997,g,1,0.6464965000004668,None,,,,sub-434027,001,2024-03-09_14h01.53.650,stroop_test,2023.2.3,59.94556942307401,2024-03-09 14h02.02.498737 +0100,
,,,,,,,,gelb,yellow,g,1,,,,,,,,,8,6,102,10,339.03800150000006,,,,,,,,,,,,,,,,,339.0205592000002,339.37158890000046,340.17223600000034,340.15596670000014,,,,,,,,,,,,,,,,,,,,,,,,,,,,,,,,,,,340.15597830000024,340.17223600000034,340.17223600000034,340.67319510000016,g,1,0.49320019999959186,None,,,,sub-434027,001,2024-03-09_14h01.53.650,stroop_test,2023.2.3,59.94556942307401,2024-03-09 14h02.02.498737 +0100,
,,,,,,,,gelb,red,r,0,,,,,,,,,8,7,103,8,340.6894132999996,,,,,,,,,,,,,,,,,340.67360029999963,341.02140770000005,341.8220117000001,341.80728980000004,,,,,,,,,,,,,,,,,,,,,,,,,,,,,,,,,,,341.8073033999999,341.8220117000001,341.8220117000001,342.4746705999996,r,1,0.6435140999992655,None,,,,sub-434027,001,2024-03-09_14h01.53.650,stroop_test,2023.2.3,59.94556942307401,2024-03-09 14h02.02.498737 +0100,
,,,,,,,,gelb,blue,b,0,,,,,,,,,8,8,104,9,342.4894151999997,,,,,,,,,,,,,,,,,342.4750592999999,343.28996840000036,344.09061889999975,344.0757801999998,,,,,,,,,,,,,,,,,,,,,,,,,,,,,,,,,,,344.0757921000004,344.09061889999975,344.09061889999975,344.64321350000046,b,1,0.5504640999997719,None,,,,sub-434027,001,2024-03-09_14h01.53.650,stroop_test,2023.2.3,59.94556942307401,2024-03-09 14h02.02.498737 +0100,
,,,,,,,,blau,blue,b,1,,,,,,,,,8,9,105,6,344.65775080000003,,,,,,,,,,,,,,,,,344.64362489999985,345.44330509999963,346.2422039000003,346.2260150000002,,,,,,,,,,,,,,,,,,,,,,,,,,,,,,,,,,,346.22602670000015,346.2422039000003,346.2422039000003,346.72664840000016,b,1,0.4793145000003278,None,,,,sub-434027,001,2024-03-09_14h01.53.650,stroop_test,2023.2.3,59.94556942307401,2024-03-09 14h02.02.498737 +0100,
,,,,,,,,blau,red,r,0,,,,,,,,,8,10,106,4,346.7443897000003,,,,,,,,,,,,,,,,,346.7270457000004,347.0779714999999,347.87862810000024,347.8607337000003,,,,,,,,,,,,,,,,,,,,,,,,,,,,,,,,,,,347.8607449000001,347.87862810000024,347.87862810000024,348.6631878999997,r,1,0.7781388000003062,None,,,,sub-434027,001,2024-03-09_14h01.53.650,stroop_test,2023.2.3,59.94556942307401,2024-03-09 14h02.02.498737 +0100,
,,,,,,,,rot,red,r,1,,,,,,,,,8,11,107,0,348.679314,,,,,,,,,,,,,,,,,348.66358779999973,349.4633071999997,350.2622733999997,350.2475752999999,,,,,,,,,,,,,,,,,,,,,,,,,,,,,,,,,,,350.24758720000045,350.2622733999997,350.2622733999997,350.78156690000014,r,1,0.5152337999998053,None,,,,sub-434027,001,2024-03-09_14h01.53.650,stroop_test,2023.2.3,59.94556942307401,2024-03-09 14h02.02.498737 +0100,
,,,,,,,,rot,red,r,1,,,,,,,,,9,0,108,1,350.7977942999996,,,,,,,,,,,,,,,,,350.7819663,351.1298560000005,351.93037319999985,351.9156202000004,,,,,,,,,,,,,,,,,,,,,,,,,,,,,,,,,,,351.9156320000002,351.93037319999985,351.93037319999985,352.39808939999966,r,1,0.4552590000002965,None,,,,sub-434027,001,2024-03-09_14h01.53.650,stroop_test,2023.2.3,59.94556942307401,2024-03-09 14h02.02.498737 +0100,
,,,,,,,,rot,yellow,g,0,,,,,,,,,9,1,109,3,352.4157548000003,,,,,,,,,,,,,,,,,352.3984687000002,352.4992032,353.29822369999965,353.2838450999998,,,,,,,,,,,,,,,,,,,,,,,,,,,,,,,,,,,353.2838762000001,353.29822369999965,353.29822369999965,355.98592629999985,g,1,2.6709624000004624,None,,,,sub-434027,001,2024-03-09_14h01.53.650,stroop_test,2023.2.3,59.94556942307401,2024-03-09 14h02.02.498737 +0100,
,,,,,,,,gelb,red,r,0,,,,,,,,,9,2,110,8,356.0004377000005,,,,,,,,,,,,,,,,,355.9863266000002,357.2030858999997,358.0022211000005,357.98576779999985,,,,,,,,,,,,,,,,,,,,,,,,,,,,,,,,,,,357.98578,358.0022211000005,358.0022211000005,358.5531157000005,r,1,0.5431381999997029,None,,,,sub-434027,001,2024-03-09_14h01.53.650,stroop_test,2023.2.3,59.94556942307401,2024-03-09 14h02.02.498737 +0100,
,,,,,,,,gelb,blue,b,0,,,,,,,,,9,3,111,9,358.5708534000005,,,,,,,,,,,,,,,,,358.55351690000043,358.65266390000033,359.45495310000024,359.43850360000033,,,,,,,,,,,,,,,,,,,,,,,,,,,,,,,,,,,359.4385162999997,359.45495310000024,359.45495310000024,359.9227288000002,b,1,0.466753300000164,None,,,,sub-434027,001,2024-03-09_14h01.53.650,stroop_test,2023.2.3,59.94556942307401,2024-03-09 14h02.02.498737 +0100,
,,,,,,,,blau,yellow,g,0,,,,,,,,,9,4,112,7,359.93863280000005,,,,,,,,,,,,,,,,,359.9231329000004,360.7210603000003,361.52185759999975,361.50694699999985,,,,,,,,,,,,,,,,,,,,,,,,,,,,,,,,,,,361.5069622000001,361.52185759999975,361.52185759999975,362.5566362999998,g,1,1.0233438999994178,None,,,,sub-434027,001,2024-03-09_14h01.53.650,stroop_test,2023.2.3,59.94556942307401,2024-03-09 14h02.02.498737 +0100,
,,,,,,,,blau,red,r,0,,,,,,,,,9,5,113,4,362.572502,,,,,,,,,,,,,,,,,362.5570416999999,363.7568973999996,364.5576394999998,364.54277679999996,,,,,,,,,,,,,,,,,,,,,,,,,,,,,,,,,,,364.5427896000001,364.5576394999998,364.5576394999998,365.4105918000005,r,1,0.8516307999998389,None,,,,sub-434027,001,2024-03-09_14h01.53.650,stroop_test,2023.2.3,59.94556942307401,2024-03-09 14h02.02.498737 +0100,
,,,,,,,,gelb,yellow,g,1,,,,,,,,,9,6,114,11,365.4249774,,,,,,,,,,,,,,,,,365.4110020999997,365.5251201000001,366.3255872999998,366.3109334999999,,,,,,,,,,,,,,,,,,,,,,,,,,,,,,,,,,,366.31094570000005,366.3255872999998,366.3255872999998,366.9448895000005,g,1,0.6116173999998864,None,,,,sub-434027,001,2024-03-09_14h01.53.650,stroop_test,2023.2.3,59.94556942307401,2024-03-09 14h02.02.498737 +0100,
,,,,,,,,gelb,yellow,g,1,,,,,,,,,9,7,115,10,366.95959330000005,,,,,,,,,,,,,,,,,366.9452928999999,367.05975899999976,367.86031189999994,367.84548989999985,,,,,,,,,,,,,,,,,,,,,,,,,,,,,,,,,,,367.8455021,367.86031189999994,367.86031189999994,368.4128419999997,g,1,0.5490304999993896,None,,,,sub-434027,001,2024-03-09_14h01.53.650,stroop_test,2023.2.3,59.94556942307401,2024-03-09 14h02.02.498737 +0100,
,,,,,,,,rot,red,r,1,,,,,,,,,9,8,116,0,368.42739080000047,,,,,,,,,,,,,,,,,368.41325570000026,368.7610837000002,369.5620693999999,369.54693380000026,,,,,,,,,,,,,,,,,,,,,,,,,,,,,,,,,,,369.5469466000004,369.5620693999999,369.5620693999999,370.0293558000003,r,1,0.462911399999939,None,,,,sub-434027,001,2024-03-09_14h01.53.650,stroop_test,2023.2.3,59.94556942307401,2024-03-09 14h02.02.498737 +0100,
,,,,,,,,blau,blue,b,1,,,,,,,,,9,9,117,6,370.04701550000027,,,,,,,,,,,,,,,,,370.0297545000003,370.3806405000005,371.1813067000003,371.1635057000003,,,,,,,,,,,,,,,,,,,,,,,,,,,,,,,,,,,371.16351810000015,371.1813067000003,371.1813067000003,371.63069710000036,b,1,0.44359410000015487,None,,,,sub-434027,001,2024-03-09_14h01.53.650,stroop_test,2023.2.3,59.94556942307401,2024-03-09 14h02.02.498737 +0100,
,,,,,,,,blau,blue,b,1,,,,,,,,,9,10,118,5,371.64834659999997,,,,,,,,,,,,,,,,,371.6310996000002,372.83107949999976,373.63182609999967,373.61698090000027,,,,,,,,,,,,,,,,,,,,,,,,,,,,,,,,,,,373.6169931000004,373.63182609999967,373.63182609999967,374.25155749999976,b,1,0.6185619999996561,None,,,,sub-434027,001,2024-03-09_14h01.53.650,stroop_test,2023.2.3,59.94556942307401,2024-03-09 14h02.02.498737 +0100,
,,,,,,,,rot,blue,b,0,,,,,,,,,9,11,119,2,374.2672091000004,,,,,,,,,,,,,,,,,374.2519529000001,374.59925459999977,375.3998572999999,375.38506719999987,,,,,,,,,,,,,,,,,,,,,,,,,,,,,,,,,,,375.38507949999985,375.3998572999999,375.3998572999999,375.9858344000004,b,1,0.5769718999999895,None,,,,sub-434027,001,2024-03-09_14h01.53.650,stroop_test,2023.2.3,59.94556942307401,2024-03-09 14h02.02.498737 +0100,
,,,,,,,,,,,,,,,,,,,,,,,,,,,,,,,,,,,,,,,,,,,,,,,,,,,,,,,,,,,,,,,,,,,,,,,,,,,,,,,,,,,,,,,375.9861442000001,376.00198199999977,380.98801749999984,,,,,,,,
