wordCTK,colorCTK,corrAnsCTK,congruentCTK,wordPractice,colorPractice,corrAnsPractice,congruentPractice,word,color,corrAns,congruent,trials_CTK.thisRepN,trials_CTK.thisTrialN,trials_CTK.thisN,trials_CTK.thisIndex,trials_practice.thisRepN,trials_practice.thisTrialN,trials_practice.thisN,trials_practice.thisIndex,trials_test.thisRepN,trials_test.thisTrialN,trials_test.thisN,trials_test.thisIndex,thisRow.t,notes,instruction.started,instr_text.started,instr_image.started,instr_resp.started,instruction.stopped,instr_resp.keys,instr_resp.rt,instr_resp.duration,instr_color_to_key.started,instr_ctk.started,resp_ctk.started,instr_color_to_key.stopped,resp_ctk.keys,resp_ctk.rt,resp_ctk.duration,ITI.started,fixcross.started,fixcross.stopped,ITI.stopped,color_to_key_run.started,stimulus_CTK.started,keyResp_CTK.started,color_to_key_run.stopped,keyResp_CTK.keys,keyResp_CTK.corr,keyResp_CTK.rt,keyResp_CTK.duration,instr_practice.started,instr_practice_text.started,instr_practice_resp.started,instr_practice.stopped,instr_practice_resp.keys,instr_practice_resp.rt,instr_practice_resp.duration,practice_run.started,stimulus_practice.started,respPractice.started,practice_run.stopped,respPractice.keys,respPractice.corr,respPractice.rt,respPractice.duration,practice_feedback.started,textFeedback.started,textFeedback.stopped,practice_feedback.stopped,instr_test.started,instr_test_text.started,instr_test_resp.started,instr_test.stopped,instr_test_resp.keys,instr_test_resp.rt,instr_test_resp.duration,test_run.started,stimulus_test_run.started,keyResp_test_run.started,test_run.stopped,keyResp_test_run.keys,keyResp_test_run.corr,keyResp_test_run.rt,keyResp_test_run.duration,goodbye.started,textGoodbye.started,goodbye.stopped,participant,session,date,expName,psychopyVersion,frameRate,expStart,
,,,,,,,,,,,,,,,,,,,,,,,,,,0.040544700001191813,0.06314380000185338,0.06314380000185338,0.06314380000185338,18.611284500002512,space,18.53901229999974,None,,,,,,,,,,,,,,,,,,,,,,,,,,,,,,,,,,,,,,,,,,,,,,,,,,,,,,,,,sub-616546,001,2024-03-08_16h03.09.892,stroop_test,2023.2.3,59.94441953536665,2024-03-08 16h03.19.143465 +0100,
,,,,,,,,,,,,,,,,,,,,,,,,,,,,,,,,,,18.611303699999553,18.62592510000104,18.62592510000104,24.431251100002555,space,5.800283000000491,None,,,,,,,,,,,,,,,,,,,,,,,,,,,,,,,,,,,,,,,,,,,,,,,,,,sub-616546,001,2024-03-08_16h03.09.892,stroop_test,2023.2.3,59.94441953536665,2024-03-08 16h03.19.143465 +0100,
test,yellow,g,1,,,,,,,,,0,0,0,1,,,,,,,,,24.449002100001962,,,,,,,,,,,,,,,,,24.435897400002432,25.63334920000125,26.43229430000065,26.417653000000428,26.417664000000514,26.43229430000065,26.43229430000065,27.268668900000193,g,1,0.8262018999994325,None,,,,,,,,,,,,,,,,,,,,,,,,,,,,,,,,,,,,,,sub-616546,001,2024-03-08_16h03.09.892,stroop_test,2023.2.3,59.94441953536665,2024-03-08 16h03.19.143465 +0100,
test,red,r,1,,,,,,,,,0,1,1,0,,,,,,,,,27.28480910000144,,,,,,,,,,,,,,,,,27.269168000002537,27.618327899999713,28.417542900002445,28.402703399999154,28.40271610000127,28.417542900002445,28.417542900002445,28.98659100000077,r,1,0.5608983999991324,None,,,,,,,,,,,,,,,,,,,,,,,,,,,,,,,,,,,,,,sub-616546,001,2024-03-08_16h03.09.892,stroop_test,2023.2.3,59.94441953536665,2024-03-08 16h03.19.143465 +0100,
test,blue,b,1,,,,,,,,,0,2,2,2,,,,,,,,,29.002789400001348,,,,,,,,,,,,,,,,,28.98694130000149,29.33636480000132,30.137079700001777,30.120576400000573,30.12058690000049,30.137079700001777,30.137079700001777,30.636523200002557,b,1,0.49759850000191364,None,,,,,,,,,,,,,,,,,,,,,,,,,,,,,,,,,,,,,,sub-616546,001,2024-03-08_16h03.09.892,stroop_test,2023.2.3,59.94441953536665,2024-03-08 16h03.19.143465 +0100,
test,red,r,1,,,,,,,,,1,0,3,0,,,,,,,,,30.652547500001674,,,,,,,,,,,,,,,,,30.63690940000015,31.838451100000384,32.63909649999914,32.621154899999965,32.62116600000081,32.63909649999914,32.63909649999914,33.47355349999998,r,1,0.8273062000007485,None,,,,,,,,,,,,,,,,,,,,,,,,,,,,,,,,,,,,,,sub-616546,001,2024-03-08_16h03.09.892,stroop_test,2023.2.3,59.94441953536665,2024-03-08 16h03.19.143465 +0100,
test,blue,b,1,,,,,,,,,1,1,4,2,,,,,,,,,33.48999580000236,,,,,,,,,,,,,,,,,33.47393060000104,34.27364840000155,35.07439499999964,35.05820990000211,35.05822170000101,35.07439499999964,35.07439499999964,35.80893859999924,b,1,0.7276897999981884,None,,,,,,,,,,,,,,,,,,,,,,,,,,,,,,,,,,,,,,sub-616546,001,2024-03-08_16h03.09.892,stroop_test,2023.2.3,59.94441953536665,2024-03-08 16h03.19.143465 +0100,
test,yellow,g,1,,,,,,,,,1,2,5,1,,,,,,,,,35.82346949999919,,,,,,,,,,,,,,,,,35.80931319999945,36.15874520000216,36.95778400000199,36.94321430000127,36.94322760000068,36.95778400000199,36.95778400000199,37.543732199999795,g,1,0.5725908000022173,None,,,,,,,,,,,,,,,,,,,,,,,,,,,,,,,,,,,,,,sub-616546,001,2024-03-08_16h03.09.892,stroop_test,2023.2.3,59.94441953536665,2024-03-08 16h03.19.143465 +0100,
test,yellow,g,1,,,,,,,,,2,0,6,1,,,,,,,,,37.55990820000079,,,,,,,,,,,,,,,,,37.544100700000854,38.343829800000094,39.14450560000114,39.12810430000172,39.12811540000257,39.14450560000114,39.14450560000114,39.64539470000091,g,1,0.4893463999978849,None,,,,,,,,,,,,,,,,,,,,,,,,,,,,,,,,,,,,,,sub-616546,001,2024-03-08_16h03.09.892,stroop_test,2023.2.3,59.94441953536665,2024-03-08 16h03.19.143465 +0100,
test,red,r,1,,,,,,,,,2,1,7,0,,,,,,,,,39.66165309999997,,,,,,,,,,,,,,,,,39.64575279999917,39.9953588999997,40.79597560000184,40.77942940000139,40.7794415999997,40.79597560000184,40.79597560000184,41.380170300002646,r,1,0.5738978999979736,None,,,,,,,,,,,,,,,,,,,,,,,,,,,,,,,,,,,,,,sub-616546,001,2024-03-08_16h03.09.892,stroop_test,2023.2.3,59.94441953536665,2024-03-08 16h03.19.143465 +0100,
test,blue,b,1,,,,,,,,,2,2,8,2,,,,,,,,,41.396549799999775,,,,,,,,,,,,,,,,,41.38052869999956,41.47974439999962,42.280370100001164,42.26248359999954,42.26249500000267,42.280370100001164,42.280370100001164,42.81472190000204,b,1,0.5219326000005822,None,,,,,,,,,,,,,,,,,,,,,,,,,,,,,,,,,,,,,,sub-616546,001,2024-03-08_16h03.09.892,stroop_test,2023.2.3,59.94441953536665,2024-03-08 16h03.19.143465 +0100,
,,,,,,,,,,,,,,,,,,,,,,,,,,,,,,,,,,,,,,,,,,,,,,,,,,,,,42.8149971999992,42.829383100000996,42.829383100000996,47.53523309999946,space,4.700545800002146,None,,,,,,,,,,,,,,,,,,,,,,,,,,,,,,,sub-616546,001,2024-03-08_16h03.09.892,stroop_test,2023.2.3,59.94441953536665,2024-03-08 16h03.19.143465 +0100,
,,,,gelb,red,r,0,,,,,,,,,0,0,0,8,,,,,47.54977390000204,,,,,,,,,,,,,,,,,47.54009290000249,47.900109500002145,48.70072219999929,48.684379700000136,,,,,,,,,,,,,,,,48.68439230000149,48.70072219999929,48.70072219999929,50.13754440000048,r,1,1.4293546000008064,None,50.1380195999991,50.15218450000248,51.15445180000097,51.13801140000214,,,,,,,,,,,,,,,,,,,sub-616546,001,2024-03-08_16h03.09.892,stroop_test,2023.2.3,59.94441953536665,2024-03-08 16h03.19.143465 +0100,
,,,,blau,blue,b,1,,,,,,,,,0,1,1,5,,,,,51.15445180000097,,,,,,,,,,,,,,,,,51.13821040000039,51.93683969999984,52.73735750000196,52.72127900000123,,,,,,,,,,,,,,,,52.721290299999964,52.73735750000196,52.73735750000196,53.340166100002534,b,1,0.6011514000019815,None,53.34041079999952,53.35461480000231,54.355504300001485,54.34065460000056,,,,,,,,,,,,,,,,,,,sub-616546,001,2024-03-08_16h03.09.892,stroop_test,2023.2.3,59.94441953536665,2024-03-08 16h03.19.143465 +0100,
,,,,blau,yellow,g,0,,,,,,,,,0,2,2,7,,,,,54.355504300001485,,,,,,,,,,,,,,,,,54.34084369999982,55.141007700000046,55.94169099999999,55.92374589999963,,,,,,,,,,,,,,,,55.92375820000234,55.94169099999999,55.94169099999999,56.80958290000126,g,1,0.8526586000007228,None,56.809835800002475,56.82576550000158,,57.81000000000131,,,,,,,,,,,,,,,,,,,sub-616546,001,2024-03-08_16h03.09.892,stroop_test,2023.2.3,59.94441953536665,2024-03-08 16h03.19.143465 +0100,
,,,,blau,blue,b,1,,,,,,,,,0,3,3,6,,,,,57.82499040000039,,,,,,,,,,,,,,,,,57.810195699999895,57.925083500002074,58.727367100000265,58.70904589999918,,,,,,,,,,,,,,,,58.709064800001215,58.727367100000265,58.727367100000265,59.31002210000224,b,1,0.571249100001296,None,59.31040280000161,59.32795510000142,,60.31216190000123,,,,,,,,,,,,,,,,,,,sub-616546,001,2024-03-08_16h03.09.892,stroop_test,2023.2.3,59.94441953536665,2024-03-08 16h03.19.143465 +0100,
,,,,gelb,yellow,g,1,,,,,,,,,0,4,4,10,,,,,60.327214200002345,,,,,,,,,,,,,,,,,60.31235559999914,60.66063850000137,61.46127350000097,61.44649700000082,,,,,,,,,,,,,,,,61.44650980000006,61.46127350000097,61.46127350000097,62.19602020000093,g,1,0.7333056999996188,None,62.196253900001466,62.21358640000108,63.21448640000017,63.19650150000234,,,,,,,,,,,,,,,,,,,sub-616546,001,2024-03-08_16h03.09.892,stroop_test,2023.2.3,59.94441953536665,2024-03-08 16h03.19.143465 +0100,
,,,,gelb,yellow,g,1,,,,,,,,,0,5,5,11,,,,,63.21448640000017,,,,,,,,,,,,,,,,,63.19669140000042,63.29619119999916,64.09686359999978,64.08211890000166,,,,,,,,,,,,,,,,64.08213410000099,64.09686359999978,64.09686359999978,64.59784220000074,g,1,0.4986266000014439,None,64.59807990000263,64.61554750000141,,65.59978200000114,,,,,,,,,,,,,,,,,,,sub-616546,001,2024-03-08_16h03.09.892,stroop_test,2023.2.3,59.94441953536665,2024-03-08 16h03.19.143465 +0100,
,,,,rot,red,r,1,,,,,,,,,0,6,6,1,,,,,65.61641109999982,,,,,,,,,,,,,,,,,65.59996610000235,65.95003130000259,66.74892700000055,66.73422190000201,,,,,,,,,,,,,,,,66.7342329000021,66.74892700000055,66.74892700000055,67.15143040000112,r,1,0.397027099999832,None,67.15166510000199,67.16766800000187,68.16852680000011,68.1504926000016,,,,,,,,,,,,,,,,,,,sub-616546,001,2024-03-08_16h03.09.892,stroop_test,2023.2.3,59.94441953536665,2024-03-08 16h03.19.143465 +0100,
,,,,rot,yellow,g,0,,,,,,,,,0,7,7,3,,,,,68.16852680000011,,,,,,,,,,,,,,,,,68.15068860000247,68.25023050000163,69.05093130000023,69.03475320000143,,,,,,,,,,,,,,,,69.03477969999949,69.05093130000023,69.05093130000023,69.90371120000054,g,1,0.8391646999989462,None,69.90395390000049,69.91834010000093,,70.9040743000005,,,,,,,,,,,,,,,,,,,sub-616546,001,2024-03-08_16h03.09.892,stroop_test,2023.2.3,59.94441953536665,2024-03-08 16h03.19.143465 +0100,
,,,,gelb,blue,b,0,,,,,,,,,0,8,8,9,,,,,70.91922340000019,,,,,,,,,,,,,,,,,70.90426920000027,71.25290020000102,72.05348109999977,72.03862080000181,,,,,,,,,,,,,,,,72.03863149999961,72.05348109999977,72.05348109999977,72.8546602000024,b,1,0.7884341000026325,None,72.85490820000268,72.87243429999944,,73.85500120000142,,,,,,,,,,,,,,,,,,,sub-616546,001,2024-03-08_16h03.09.892,stroop_test,2023.2.3,59.94441953536665,2024-03-08 16h03.19.143465 +0100,
,,,,blau,red,r,0,,,,,,,,,0,9,9,4,,,,,73.87321680000241,,,,,,,,,,,,,,,,,73.85519410000052,74.65721250000206,75.4561915000013,75.44142940000165,,,,,,,,,,,,,,,,75.44144170000072,75.4561915000013,75.4561915000013,76.32581230000142,r,1,0.8659870999981649,None,76.3260521000011,76.34193660000165,77.34276320000208,77.32473220000247,,,,,,,,,,,,,,,,,,,sub-616546,001,2024-03-08_16h03.09.892,stroop_test,2023.2.3,59.94441953536665,2024-03-08 16h03.19.143465 +0100,
,,,,rot,blue,b,0,,,,,,,,,0,10,10,2,,,,,77.34276320000208,,,,,,,,,,,,,,,,,77.32493180000165,77.69157629999972,78.49201180000091,78.47735990000001,,,,,,,,,,,,,,,,78.47737219999908,78.49201180000091,78.49201180000091,79.40993170000002,b,1,0.9097135999982129,None,79.41022499999963,79.4278450999991,,80.41039319999982,,,,,,,,,,,,,,,,,,,sub-616546,001,2024-03-08_16h03.09.892,stroop_test,2023.2.3,59.94441953536665,2024-03-08 16h03.19.143465 +0100,
,,,,rot,red,r,1,,,,,,,,,0,11,11,0,,,,,80.42700500000137,,,,,,,,,,,,,,,,,80.41062489999968,80.76064140000017,81.56130630000189,81.54657260000022,,,,,,,,,,,,,,,,81.54658520000157,81.56130630000189,81.56130630000189,82.16232479999962,r,1,0.5930993000001763,None,82.162556700001,82.18006520000199,,83.16266320000068,,,,,,,,,,,,,,,,,,,sub-616546,001,2024-03-08_16h03.09.892,stroop_test,2023.2.3,59.94441953536665,2024-03-08 16h03.19.143465 +0100,
,,,,gelb,blue,b,0,,,,,,,,,1,0,12,9,,,,,83.1809076999998,,,,,,,,,,,,,,,,,83.1628927999991,83.26279000000068,84.0633052000012,84.0485864000002,,,,,,,,,,,,,,,,84.04859910000232,84.0633052000012,84.0633052000012,84.66430120000223,b,1,0.5874509000022954,None,84.66453340000226,84.68216329999996,,85.66632369999934,,,,,,,,,,,,,,,,,,,sub-616546,001,2024-03-08_16h03.09.892,stroop_test,2023.2.3,59.94441953536665,2024-03-08 16h03.19.143465 +0100,
,,,,blau,yellow,g,0,,,,,,,,,1,1,13,7,,,,,85.68308400000024,,,,,,,,,,,,,,,,,85.66651130000173,86.86726289999933,87.66628789999959,87.65016810000088,,,,,,,,,,,,,,,,87.65018000000055,87.66628789999959,87.66628789999959,89.01963510000132,g,1,1.343852699999843,None,89.01987530000042,89.03572820000045,90.03658840000207,90.01872569999978,,,,,,,,,,,,,,,,,,,sub-616546,001,2024-03-08_16h03.09.892,stroop_test,2023.2.3,59.94441953536665,2024-03-08 16h03.19.143465 +0100,
,,,,blau,red,r,0,,,,,,,,,1,2,14,4,,,,,90.03658840000207,,,,,,,,,,,,,,,,,90.01891199999955,90.1200174000005,90.9206363000012,90.9043840000013,,,,,,,,,,,,,,,,90.90439730000071,90.9206363000012,90.9206363000012,91.75345940000261,r,1,0.8184886000017286,None,91.75370450000264,91.76964389999921,,92.75396990000081,,,,,,,,,,,,,,,,,,,sub-616546,001,2024-03-08_16h03.09.892,stroop_test,2023.2.3,59.94441953536665,2024-03-08 16h03.19.143465 +0100,
,,,,blau,blue,b,1,,,,,,,,,1,3,15,6,,,,,92.77222099999926,,,,,,,,,,,,,,,,,92.7541865000021,93.95658639999965,94.75722270000188,94.74094460000197,,,,,,,,,,,,,,,,94.74095940000188,94.75722270000188,94.75722270000188,95.30821389999983,b,1,0.549602800001594,None,95.30847640000138,95.32277990000148,,96.30855820000215,,,,,,,,,,,,,,,,,,,sub-616546,001,2024-03-08_16h03.09.892,stroop_test,2023.2.3,59.94441953536665,2024-03-08 16h03.19.143465 +0100,
,,,,rot,red,r,1,,,,,,,,,1,4,16,0,,,,,96.32369160000235,,,,,,,,,,,,,,,,,96.30875240000023,97.10917340000015,97.90807639999912,97.89344440000059,,,,,,,,,,,,,,,,97.89345580000008,97.90807639999912,97.90807639999912,98.44465050000144,r,1,0.5352658999981941,None,98.44496509999954,98.45848549999937,99.45956990000195,99.44471479999993,,,,,,,,,,,,,,,,,,,sub-616546,001,2024-03-08_16h03.09.892,stroop_test,2023.2.3,59.94441953536665,2024-03-08 16h03.19.143465 +0100,
,,,,rot,blue,b,0,,,,,,,,,1,5,17,2,,,,,99.45956990000195,,,,,,,,,,,,,,,,,99.44491140000173,99.55944400000226,100.36186400000224,100.34546380000029,,,,,,,,,,,,,,,,100.34547569999995,100.36186400000224,100.36186400000224,100.81270080000104,b,1,0.44788359999802196,None,100.81300470000133,100.82885800000076,,101.81309770000007,,,,,,,,,,,,,,,,,,,sub-616546,001,2024-03-08_16h03.09.892,stroop_test,2023.2.3,59.94441953536665,2024-03-08 16h03.19.143465 +0100,
,,,,blau,blue,b,1,,,,,,,,,1,6,18,5,,,,,101.82826260000002,,,,,,,,,,,,,,,,,101.8132958999995,102.1616357999992,102.96229980000135,102.94757039999968,,,,,,,,,,,,,,,,102.94758250000086,102.96229980000135,102.96229980000135,103.56500249999954,b,1,0.5912478999998712,None,103.56525700000202,103.57952800000203,,104.56572220000089,,,,,,,,,,,,,,,,,,,sub-616546,001,2024-03-08_16h03.09.892,stroop_test,2023.2.3,59.94441953536665,2024-03-08 16h03.19.143465 +0100,
,,,,gelb,red,r,0,,,,,,,,,1,7,19,8,,,,,104.58200679999936,,,,,,,,,,,,,,,,,104.56593570000041,104.91553240000212,105.71442620000016,105.6999410999997,,,,,,,,,,,,,,,,105.69995349999954,105.71442620000016,105.71442620000016,106.48412309999912,r,1,0.7681603000019095,None,106.48436620000211,106.49868290000086,107.50112420000005,107.48308480000196,,,,,,,,,,,,,,,,,,,sub-616546,001,2024-03-08_16h03.09.892,stroop_test,2023.2.3,59.94441953536665,2024-03-08 16h03.19.143465 +0100,
,,,,gelb,yellow,g,1,,,,,,,,,1,8,20,11,,,,,107.50112420000005,,,,,,,,,,,,,,,,,107.48327550000249,107.58281949999946,108.38351560000228,108.36708609999914,,,,,,,,,,,,,,,,108.36709800000244,108.38351560000228,108.38351560000228,109.08481220000249,g,1,0.69891429999916,None,109.08504800000082,109.10239410000213,,110.08509790000244,,,,,,,,,,,,,,,,,,,sub-616546,001,2024-03-08_16h03.09.892,stroop_test,2023.2.3,59.94441953536665,2024-03-08 16h03.19.143465 +0100,
,,,,gelb,yellow,g,1,,,,,,,,,1,9,21,10,,,,,110.10328070000105,,,,,,,,,,,,,,,,,110.08528600000136,110.18501860000106,110.98563470000227,110.97081930000058,,,,,,,,,,,,,,,,110.97083240000211,110.98563470000227,110.98563470000227,111.78698160000204,g,1,0.7926210000005085,None,111.78721869999936,111.80463070000042,112.80543000000034,112.78746769999998,,,,,,,,,,,,,,,,,,,sub-616546,001,2024-03-08_16h03.09.892,stroop_test,2023.2.3,59.94441953536665,2024-03-08 16h03.19.143465 +0100,
,,,,rot,red,r,1,,,,,,,,,1,10,22,1,,,,,112.80543000000034,,,,,,,,,,,,,,,,,112.7876467999995,112.88717770000221,113.68782439999995,113.67307520000031,,,,,,,,,,,,,,,,113.67308760000014,113.68782439999995,113.68782439999995,114.2222365000016,r,1,0.5303419000010763,None,114.22249150000061,114.23834310000166,115.24078129999907,115.22269070000038,,,,,,,,,,,,,,,,,,,sub-616546,001,2024-03-08_16h03.09.892,stroop_test,2023.2.3,59.94441953536665,2024-03-08 16h03.19.143465 +0100,
,,,,rot,yellow,g,0,,,,,,,,,1,11,23,3,,,,,115.24078129999907,,,,,,,,,,,,,,,,,115.22288620000108,115.57436679999955,116.37498989999949,116.35882700000002,,,,,,,,,,,,,,,,116.35883939999985,116.37498989999949,116.37498989999949,117.09129079999911,g,1,0.7071221999976842,None,117.09152790000007,117.1089744000019,,118.09337570000207,,,,,,,,,,,,,,,,,,,sub-616546,001,2024-03-08_16h03.09.892,stroop_test,2023.2.3,59.94441953536665,2024-03-08 16h03.19.143465 +0100,
,,,,,,,,,,,,,,,,,,,,,,,,,,,,,,,,,,,,,,,,,,,,,,,,,,,,,,,,,,,,,,,,,,,,,,,,118.09341789999962,118.10986740000226,118.10986740000226,121.93011259999912,space,3.8125719999989087,None,,,,,,,,,,,,sub-616546,001,2024-03-08_16h03.09.892,stroop_test,2023.2.3,59.94441953536665,2024-03-08 16h03.19.143465 +0100,
,,,,,,,,blau,blue,b,1,,,,,,,,,0,0,0,6,121.94635180000114,,,,,,,,,,,,,,,,,121.93476010000086,122.73031800000172,123.52926189999926,123.51462660000107,,,,,,,,,,,,,,,,,,,,,,,,,,,,,,,,,,,123.51464019999912,123.52926189999926,123.52926189999926,124.23221850000118,b,1,0.6892409000029147,None,,,,sub-616546,001,2024-03-08_16h03.09.892,stroop_test,2023.2.3,59.94441953536665,2024-03-08 16h03.19.143465 +0100,
,,,,,,,,gelb,yellow,g,1,,,,,,,,,0,1,1,10,124.24833280000166,,,,,,,,,,,,,,,,,124.23281990000032,124.33000940000056,125.13061920000109,125.11595040000248,,,,,,,,,,,,,,,,,,,,,,,,,,,,,,,,,,,125.11596210000062,125.13061920000109,125.13061920000109,125.79998390000037,g,1,0.6557007000010344,None,,,,sub-616546,001,2024-03-08_16h03.09.892,stroop_test,2023.2.3,59.94441953536665,2024-03-08 16h03.19.143465 +0100,
,,,,,,,,gelb,red,r,0,,,,,,,,,0,2,2,8,125.81626289999986,,,,,,,,,,,,,,,,,125.8003850999994,126.60018390000187,127.40078740000172,127.3844476000013,,,,,,,,,,,,,,,,,,,,,,,,,,,,,,,,,,,127.38445890000003,127.40078740000172,127.40078740000172,128.23539320000054,r,1,0.8249375999985205,None,,,,sub-616546,001,2024-03-08_16h03.09.892,stroop_test,2023.2.3,59.94441953536665,2024-03-08 16h03.19.143465 +0100,
,,,,,,,,gelb,blue,b,0,,,,,,,,,0,3,3,9,128.24991320000117,,,,,,,,,,,,,,,,,128.23580579999907,128.5835287000009,129.3842048000006,129.36940329999925,,,,,,,,,,,,,,,,,,,,,,,,,,,,,,,,,,,129.36941540000043,129.3842048000006,129.3842048000006,130.1369685000027,b,1,0.7374257999981637,None,,,,sub-616546,001,2024-03-08_16h03.09.892,stroop_test,2023.2.3,59.94441953536665,2024-03-08 16h03.19.143465 +0100,
,,,,,,,,rot,red,r,1,,,,,,,,,0,4,4,0,130.15147730000172,,,,,,,,,,,,,,,,,130.13753940000242,131.35256230000232,132.15315040000132,132.13685450000048,,,,,,,,,,,,,,,,,,,,,,,,,,,,,,,,,,,132.13686840000082,132.15315040000132,132.15315040000132,132.7391819000004,r,1,0.5845235999986471,None,,,,sub-616546,001,2024-03-08_16h03.09.892,stroop_test,2023.2.3,59.94441953536665,2024-03-08 16h03.19.143465 +0100,
,,,,,,,,gelb,yellow,g,1,,,,,,,,,0,5,5,11,132.75528430000122,,,,,,,,,,,,,,,,,132.73960129999978,132.83868740000253,133.6375635000004,133.62303900000188,,,,,,,,,,,,,,,,,,,,,,,,,,,,,,,,,,,133.62304980000044,133.6375635000004,133.6375635000004,134.28875260000132,g,1,0.6441395999972883,None,,,,sub-616546,001,2024-03-08_16h03.09.892,stroop_test,2023.2.3,59.94441953536665,2024-03-08 16h03.19.143465 +0100,
,,,,,,,,rot,red,r,1,,,,,,,,,0,6,6,1,134.30654259999937,,,,,,,,,,,,,,,,,134.28914820000136,134.63842830000067,135.43909260000146,135.4244359000004,,,,,,,,,,,,,,,,,,,,,,,,,,,,,,,,,,,135.424447100002,135.43909260000146,135.43909260000146,135.92374560000098,r,1,0.48303820000000997,None,,,,sub-616546,001,2024-03-08_16h03.09.892,stroop_test,2023.2.3,59.94441953536665,2024-03-08 16h03.19.143465 +0100,
,,,,,,,,blau,yellow,g,0,,,,,,,,,0,7,7,7,135.9412771999996,,,,,,,,,,,,,,,,,135.92415579999943,137.1256648000017,137.92446340000242,137.90979250000237,,,,,,,,,,,,,,,,,,,,,,,,,,,,,,,,,,,137.9098038000011,137.92446340000242,137.92446340000242,138.94247960000212,g,1,1.0060031000029994,None,,,,sub-616546,001,2024-03-08_16h03.09.892,stroop_test,2023.2.3,59.94441953536665,2024-03-08 16h03.19.143465 +0100,
,,,,,,,,blau,red,r,0,,,,,,,,,0,8,8,4,138.96042959999977,,,,,,,,,,,,,,,,,138.9430272000027,139.74433970000246,140.54331690000254,140.5286828999997,,,,,,,,,,,,,,,,,,,,,,,,,,,,,,,,,,,140.52869490000012,140.54331690000254,140.54331690000254,141.5614581000009,r,1,1.0106792000005953,None,,,,sub-616546,001,2024-03-08_16h03.09.892,stroop_test,2023.2.3,59.94441953536665,2024-03-08 16h03.19.143465 +0100,
,,,,,,,,blau,blue,b,1,,,,,,,,,0,9,9,5,141.5792846000004,,,,,,,,,,,,,,,,,141.56184550000035,141.91281230000095,142.71345940000174,142.6955947000024,,,,,,,,,,,,,,,,,,,,,,,,,,,,,,,,,,,142.69560679999995,142.71345940000174,142.71345940000174,143.24607280000055,b,1,0.5283271999978751,None,,,,sub-616546,001,2024-03-08_16h03.09.892,stroop_test,2023.2.3,59.94441953536665,2024-03-08 16h03.19.143465 +0100,
,,,,,,,,rot,yellow,g,0,,,,,,,,,0,10,10,3,143.26407390000168,,,,,,,,,,,,,,,,,143.24650499999916,144.04789810000148,144.84691910000038,144.8323526000022,,,,,,,,,,,,,,,,,,,,,,,,,,,,,,,,,,,144.83236509999915,144.84691910000038,144.84691910000038,145.78321730000243,g,1,0.9306021000011242,None,,,,sub-616546,001,2024-03-08_16h03.09.892,stroop_test,2023.2.3,59.94441953536665,2024-03-08 16h03.19.143465 +0100,
,,,,,,,,rot,blue,b,0,,,,,,,,,0,11,11,2,145.7977635999996,,,,,,,,,,,,,,,,,145.7836329999991,146.9823378000001,147.7827141000016,147.7679726000024,,,,,,,,,,,,,,,,,,,,,,,,,,,,,,,,,,,147.76798390000113,147.7827141000016,147.7827141000016,148.36864870000136,b,1,0.5709620999987237,None,,,,sub-616546,001,2024-03-08_16h03.09.892,stroop_test,2023.2.3,59.94441953536665,2024-03-08 16h03.19.143465 +0100,
,,,,,,,,rot,red,r,1,,,,,,,,,1,0,12,1,148.3848923000005,,,,,,,,,,,,,,,,,148.36905350000234,148.73350090000167,149.5339817000022,149.51953610000055,,,,,,,,,,,,,,,,,,,,,,,,,,,,,,,,,,,149.51954839999962,149.5339817000022,149.5339817000022,150.4372215000003,r,1,0.8997653000005812,None,,,,sub-616546,001,2024-03-08_16h03.09.892,stroop_test,2023.2.3,59.94441953536665,2024-03-08 16h03.19.143465 +0100,
,,,,,,,,blau,yellow,g,0,,,,,,,,,1,1,13,7,150.4533279999996,,,,,,,,,,,,,,,,,150.4376553000002,151.23721579999983,152.03618819999974,152.01998070000263,,,,,,,,,,,,,,,,,,,,,,,,,,,,,,,,,,,152.01999440000145,152.03618819999974,152.03618819999974,152.60545730000013,b,0,0.5580161999969278,None,,,,sub-616546,001,2024-03-08_16h03.09.892,stroop_test,2023.2.3,59.94441953536665,2024-03-08 16h03.19.143465 +0100,
,,,,,,,,rot,red,r,1,,,,,,,,,1,2,14,0,152.62021860000095,,,,,,,,,,,,,,,,,152.60589310000069,153.8227829000025,154.6216655999997,154.6069189000009,,,,,,,,,,,,,,,,,,,,,,,,,,,,,,,,,,,154.60692969999945,154.6216655999997,154.6216655999997,155.35637100000167,r,1,0.7326730999993742,None,,,,sub-616546,001,2024-03-08_16h03.09.892,stroop_test,2023.2.3,59.94441953536665,2024-03-08 16h03.19.143465 +0100,
,,,,,,,,rot,blue,b,0,,,,,,,,,1,3,15,2,155.37397670000064,,,,,,,,,,,,,,,,,155.35678220000045,156.15803140000207,156.95879699999932,156.94218390000242,,,,,,,,,,,,,,,,,,,,,,,,,,,,,,,,,,,156.94219499999963,156.95879699999932,156.95879699999932,157.64151060000222,b,1,0.6751724999994622,None,,,,sub-616546,001,2024-03-08_16h03.09.892,stroop_test,2023.2.3,59.94441953536665,2024-03-08 16h03.19.143465 +0100,
,,,,,,,,gelb,yellow,g,1,,,,,,,,,1,4,16,10,157.6592778000013,,,,,,,,,,,,,,,,,157.64192320000075,157.742573800002,158.5414822999992,158.52695940000194,,,,,,,,,,,,,,,,,,,,,,,,,,,,,,,,,,,158.52697110000008,158.5414822999992,158.5414822999992,159.4944710000018,g,1,0.9482442000007723,None,,,,sub-616546,001,2024-03-08_16h03.09.892,stroop_test,2023.2.3,59.94441953536665,2024-03-08 16h03.19.143465 +0100,
,,,,,,,,gelb,blue,b,0,,,,,,,,,1,5,17,9,159.51069460000144,,,,,,,,,,,,,,,,,159.49486969999998,159.59413440000208,160.39321259999997,160.37848769999982,,,,,,,,,,,,,,,,,,,,,,,,,,,,,,,,,,,160.37850030000118,160.39321259999997,160.39321259999997,161.2460898999998,b,1,0.8484437999977672,None,,,,sub-616546,001,2024-03-08_16h03.09.892,stroop_test,2023.2.3,59.94441953536665,2024-03-08 16h03.19.143465 +0100,
,,,,,,,,rot,yellow,g,0,,,,,,,,,1,6,18,3,161.26061480000135,,,,,,,,,,,,,,,,,161.24667970000155,161.34557530000166,162.14460320000217,162.12821930000064,,,,,,,,,,,,,,,,,,,,,,,,,,,,,,,,,,,162.1282315999997,162.14460320000217,162.14460320000217,163.23108960000172,g,1,1.072938699999213,None,,,,sub-616546,001,2024-03-08_16h03.09.892,stroop_test,2023.2.3,59.94441953536665,2024-03-08 16h03.19.143465 +0100,
,,,,,,,,blau,blue,b,1,,,,,,,,,1,7,19,6,163.24713130000237,,,,,,,,,,,,,,,,,163.23151230000076,163.57905849999952,164.37965640000039,164.3650258000016,,,,,,,,,,,,,,,,,,,,,,,,,,,,,,,,,,,164.36503710000034,164.37965640000039,164.37965640000039,165.1808951000021,b,1,0.7906722000006994,None,,,,sub-616546,001,2024-03-08_16h03.09.892,stroop_test,2023.2.3,59.94441953536665,2024-03-08 16h03.19.143465 +0100,
,,,,,,,,blau,red,r,0,,,,,,,,,1,8,20,4,165.19880489999923,,,,,,,,,,,,,,,,,165.18130759999985,165.28051720000076,166.08285220000107,166.0648927000002,,,,,,,,,,,,,,,,,,,,,,,,,,,,,,,,,,,166.0649044999991,166.08285220000107,166.08285220000107,167.14926050000213,g,0,1.0630288000029395,None,,,,sub-616546,001,2024-03-08_16h03.09.892,stroop_test,2023.2.3,59.94441953536665,2024-03-08 16h03.19.143465 +0100,
,,,,,,,,gelb,yellow,g,1,,,,,,,,,1,9,21,11,167.16709360000095,,,,,,,,,,,,,,,,,167.14965389999998,167.25044420000268,168.04947259999972,168.03467490000185,,,,,,,,,,,,,,,,,,,,,,,,,,,,,,,,,,,168.03468559999965,168.04947259999972,168.04947259999972,168.7505431000027,r,0,0.688654100002168,None,,,,sub-616546,001,2024-03-08_16h03.09.892,stroop_test,2023.2.3,59.94441953536665,2024-03-08 16h03.19.143465 +0100,
,,,,,,,,blau,blue,b,1,,,,,,,,,1,10,22,5,168.76846189999924,,,,,,,,,,,,,,,,,168.75094159999935,169.95115219999934,170.75170690000232,170.7369675000009,,,,,,,,,,,,,,,,,,,,,,,,,,,,,,,,,,,170.7369796999992,170.75170690000232,170.75170690000232,171.4211765,b,1,0.6657907000007981,None,,,,sub-616546,001,2024-03-08_16h03.09.892,stroop_test,2023.2.3,59.94441953536665,2024-03-08 16h03.19.143465 +0100,
,,,,,,,,gelb,red,r,0,,,,,,,,,1,11,23,8,171.43722720000005,,,,,,,,,,,,,,,,,171.42158770000242,172.62164259999918,173.42045520000102,173.4058122000024,,,,,,,,,,,,,,,,,,,,,,,,,,,,,,,,,,,173.4058236000019,173.42045520000102,173.42045520000102,174.2066973000001,r,1,0.7730459999984305,None,,,,sub-616546,001,2024-03-08_16h03.09.892,stroop_test,2023.2.3,59.94441953536665,2024-03-08 16h03.19.143465 +0100,
,,,,,,,,gelb,blue,b,0,,,,,,,,,2,0,24,9,174.22295880000092,,,,,,,,,,,,,,,,,174.2071023999997,174.55665410000074,175.3555249000019,175.3408453000011,,,,,,,,,,,,,,,,,,,,,,,,,,,,,,,,,,,175.3408574999994,175.3555249000019,175.3555249000019,175.9914159,b,1,0.6219409999976051,None,,,,sub-616546,001,2024-03-08_16h03.09.892,stroop_test,2023.2.3,59.94441953536665,2024-03-08 16h03.19.143465 +0100,
,,,,,,,,blau,blue,b,1,,,,,,,,,2,1,25,5,176.0077068999999,,,,,,,,,,,,,,,,,175.99181569999928,176.79175849999956,177.59061660000225,177.57592830000067,,,,,,,,,,,,,,,,,,,,,,,,,,,,,,,,,,,177.57594210000025,177.59061660000225,177.59061660000225,178.19161430000167,b,1,0.5876892999986012,None,,,,sub-616546,001,2024-03-08_16h03.09.892,stroop_test,2023.2.3,59.94441953536665,2024-03-08 16h03.19.143465 +0100,
,,,,,,,,rot,red,r,1,,,,,,,,,2,2,26,1,178.2095126000022,,,,,,,,,,,,,,,,,178.19201629999952,178.2930645000015,179.09181370000078,179.07715749999988,,,,,,,,,,,,,,,,,,,,,,,,,,,,,,,,,,,179.07716880000226,179.09181370000078,179.09181370000078,179.99308999999994,r,1,0.8864863999988302,None,,,,sub-616546,001,2024-03-08_16h03.09.892,stroop_test,2023.2.3,59.94441953536665,2024-03-08 16h03.19.143465 +0100,
,,,,,,,,blau,yellow,g,0,,,,,,,,,2,3,27,7,180.0109897000002,,,,,,,,,,,,,,,,,179.99355320000177,180.34457920000204,181.14350249999916,181.12893240000267,,,,,,,,,,,,,,,,,,,,,,,,,,,,,,,,,,,181.128943300002,181.14350249999916,181.14350249999916,181.9966538000008,g,1,0.8518574000008812,None,,,,sub-616546,001,2024-03-08_16h03.09.892,stroop_test,2023.2.3,59.94441953536665,2024-03-08 16h03.19.143465 +0100,
,,,,,,,,gelb,red,r,0,,,,,,,,,2,4,28,8,182.01273050000236,,,,,,,,,,,,,,,,,181.9970460000004,182.36133840000184,183.16195030000017,183.14717890000247,,,,,,,,,,,,,,,,,,,,,,,,,,,,,,,,,,,183.14719139999943,183.16195030000017,183.16195030000017,183.92980680000255,r,1,0.7605866000012611,None,,,,sub-616546,001,2024-03-08_16h03.09.892,stroop_test,2023.2.3,59.94441953536665,2024-03-08 16h03.19.143465 +0100,
,,,,,,,,blau,red,r,0,,,,,,,,,2,5,29,4,183.94753440000204,,,,,,,,,,,,,,,,,183.9302287999999,184.73158329999933,185.53054060000068,185.51589260000037,,,,,,,,,,,,,,,,,,,,,,,,,,,,,,,,,,,185.51590489999944,185.53054060000068,185.53054060000068,186.39848569999958,r,1,0.8635802999997395,None,,,,sub-616546,001,2024-03-08_16h03.09.892,stroop_test,2023.2.3,59.94441953536665,2024-03-08 16h03.19.143465 +0100,
,,,,,,,,blau,blue,b,1,,,,,,,,,2,6,30,6,186.41631880000205,,,,,,,,,,,,,,,,,186.398884000002,187.20023370000126,188.0009143999996,187.98291729999983,,,,,,,,,,,,,,,,,,,,,,,,,,,,,,,,,,,187.98292960000254,188.0009143999996,188.0009143999996,188.58386640000026,b,1,0.5691963999997824,None,,,,sub-616546,001,2024-03-08_16h03.09.892,stroop_test,2023.2.3,59.94441953536665,2024-03-08 16h03.19.143465 +0100,
,,,,,,,,rot,red,r,1,,,,,,,,,2,7,31,0,188.60144819999914,,,,,,,,,,,,,,,,,188.58427350000056,189.38536430000022,190.18442230000073,190.16808400000082,,,,,,,,,,,,,,,,,,,,,,,,,,,,,,,,,,,190.16809750000175,190.18442230000073,190.18442230000073,190.83551050000096,r,1,0.6414426999981515,None,,,,sub-616546,001,2024-03-08_16h03.09.892,stroop_test,2023.2.3,59.94441953536665,2024-03-08 16h03.19.143465 +0100,
,,,,,,,,gelb,yellow,g,1,,,,,,,,,2,8,32,10,190.8535069999998,,,,,,,,,,,,,,,,,190.83595550000246,190.9366422000021,191.7373002000022,191.71944200000144,,,,,,,,,,,,,,,,,,,,,,,,,,,,,,,,,,,191.71945609999966,191.7373002000022,191.7373002000022,192.4718294000013,g,1,0.7288810999998532,None,,,,sub-616546,001,2024-03-08_16h03.09.892,stroop_test,2023.2.3,59.94441953536665,2024-03-08 16h03.19.143465 +0100,
,,,,,,,,gelb,yellow,g,1,,,,,,,,,2,9,33,11,192.48632290000023,,,,,,,,,,,,,,,,,192.47223660000236,193.6722843000025,194.4729279000021,194.45672470000136,,,,,,,,,,,,,,,,,,,,,,,,,,,,,,,,,,,194.45673680000255,194.4729279000021,194.4729279000021,195.2073999000022,g,1,0.7205391999996209,None,,,,sub-616546,001,2024-03-08_16h03.09.892,stroop_test,2023.2.3,59.94441953536665,2024-03-08 16h03.19.143465 +0100,
,,,,,,,,rot,blue,b,0,,,,,,,,,2,10,34,2,195.2236279000026,,,,,,,,,,,,,,,,,195.20780569999988,196.00764920000074,196.82334059999994,196.80850389999978,,,,,,,,,,,,,,,,,,,,,,,,,,,,,,,,,,,196.8085151000014,196.82334059999994,196.82334059999994,197.64281689999916,b,1,0.8181807000000845,None,,,,sub-616546,001,2024-03-08_16h03.09.892,stroop_test,2023.2.3,59.94441953536665,2024-03-08 16h03.19.143465 +0100,
,,,,,,,,rot,yellow,g,0,,,,,,,,,2,11,35,3,197.65904880000016,,,,,,,,,,,,,,,,,197.64326889999938,197.9925112000019,198.7932905000016,198.7769401000005,,,,,,,,,,,,,,,,,,,,,,,,,,,,,,,,,,,198.7769522000017,198.7932905000016,198.7932905000016,199.69273860000249,g,1,0.8887259999974049,None,,,,sub-616546,001,2024-03-08_16h03.09.892,stroop_test,2023.2.3,59.94441953536665,2024-03-08 16h03.19.143465 +0100,
,,,,,,,,rot,red,r,1,,,,,,,,,3,0,36,1,199.71064800000022,,,,,,,,,,,,,,,,,199.69314230000236,199.792449200002,200.5930182000011,200.57671400000254,,,,,,,,,,,,,,,,,,,,,,,,,,,,,,,,,,,200.57672670000102,200.5930182000011,200.5930182000011,201.2774868000015,r,1,0.6808110000019951,None,,,,sub-616546,001,2024-03-08_16h03.09.892,stroop_test,2023.2.3,59.94441953536665,2024-03-08 16h03.19.143465 +0100,
,,,,,,,,gelb,red,r,0,,,,,,,,,3,1,37,8,201.29536980000194,,,,,,,,,,,,,,,,,201.2778986000012,201.3786355000011,202.1777375999991,202.16300520000004,,,,,,,,,,,,,,,,,,,,,,,,,,,,,,,,,,,202.1630167000003,202.1777375999991,202.1777375999991,203.06394210000144,r,1,0.8796989999973448,None,,,,sub-616546,001,2024-03-08_16h03.09.892,stroop_test,2023.2.3,59.94441953536665,2024-03-08 16h03.19.143465 +0100,
,,,,,,,,gelb,yellow,g,1,,,,,,,,,3,2,38,10,203.0801434999994,,,,,,,,,,,,,,,,,203.0643412999998,203.8641387000025,204.66479660000186,204.64831550000235,,,,,,,,,,,,,,,,,,,,,,,,,,,,,,,,,,,204.64832780000143,204.66479660000186,204.66479660000186,205.36595940000188,g,1,0.69759250000061,None,,,,sub-616546,001,2024-03-08_16h03.09.892,stroop_test,2023.2.3,59.94441953536665,2024-03-08 16h03.19.143465 +0100,
,,,,,,,,blau,red,r,0,,,,,,,,,3,3,39,4,205.38200549999965,,,,,,,,,,,,,,,,,205.36635430000024,205.7155856999998,206.51463780000267,206.49993630000245,,,,,,,,,,,,,,,,,,,,,,,,,,,,,,,,,,,206.4999480000006,206.51463780000267,206.51463780000267,207.41582810000182,r,1,0.8873137999980827,None,,,,sub-616546,001,2024-03-08_16h03.09.892,stroop_test,2023.2.3,59.94441953536665,2024-03-08 16h03.19.143465 +0100,
,,,,,,,,gelb,yellow,g,1,,,,,,,,,3,4,40,11,207.43363280000267,,,,,,,,,,,,,,,,,207.4162647000012,208.21598599999925,209.0168217999999,209.0019248000026,,,,,,,,,,,,,,,,,,,,,,,,,,,,,,,,,,,209.00193670000226,209.0168217999999,209.0168217999999,209.8027957000013,g,1,0.7765904999978375,None,,,,sub-616546,001,2024-03-08_16h03.09.892,stroop_test,2023.2.3,59.94441953536665,2024-03-08 16h03.19.143465 +0100,
,,,,,,,,gelb,blue,b,0,,,,,,,,,3,5,41,9,209.81905320000078,,,,,,,,,,,,,,,,,209.80336330000137,211.00327300000208,211.80234090000158,211.78597359999912,,,,,,,,,,,,,,,,,,,,,,,,,,,,,,,,,,,211.78598609999972,211.80234090000158,211.80234090000158,212.3382057000017,b,1,0.5199460000003455,None,,,,sub-616546,001,2024-03-08_16h03.09.892,stroop_test,2023.2.3,59.94441953536665,2024-03-08 16h03.19.143465 +0100,
,,,,,,,,blau,blue,b,1,,,,,,,,,3,6,42,5,212.35277290000158,,,,,,,,,,,,,,,,,212.33861320000142,213.1384317000011,213.9374131000004,213.92268350000086,,,,,,,,,,,,,,,,,,,,,,,,,,,,,,,,,,,213.9226947999996,213.9374131000004,213.9374131000004,214.5885061000008,b,1,0.6410021000010602,None,,,,sub-616546,001,2024-03-08_16h03.09.892,stroop_test,2023.2.3,59.94441953536665,2024-03-08 16h03.19.143465 +0100,
,,,,,,,,rot,blue,b,0,,,,,,,,,3,7,43,2,214.60619190000216,,,,,,,,,,,,,,,,,214.58890900000188,214.68965590000153,215.48871879999933,215.47393999999986,,,,,,,,,,,,,,,,,,,,,,,,,,,,,,,,,,,215.4739523999997,215.48871879999933,215.48871879999933,216.4754348000024,b,1,0.9855356000007305,None,,,,sub-616546,001,2024-03-08_16h03.09.892,stroop_test,2023.2.3,59.94441953536665,2024-03-08 16h03.19.143465 +0100,
,,,,,,,,blau,blue,b,1,,,,,,,,,3,8,44,6,216.48957560000053,,,,,,,,,,,,,,,,,216.47585830000025,217.2751563999991,218.07412420000037,218.05944680000175,,,,,,,,,,,,,,,,,,,,,,,,,,,,,,,,,,,218.05945880000218,218.07412420000037,218.07412420000037,218.56000300000233,b,1,0.4718652000010479,None,,,,sub-616546,001,2024-03-08_16h03.09.892,stroop_test,2023.2.3,59.94441953536665,2024-03-08 16h03.19.143465 +0100,
,,,,,,,,rot,red,r,1,,,,,,,,,3,9,45,0,218.5762371000019,,,,,,,,,,,,,,,,,218.5604045,219.35857749999923,220.15916140000263,220.14449650000097,,,,,,,,,,,,,,,,,,,,,,,,,,,,,,,,,,,220.14450860000215,220.15916140000263,220.15916140000263,220.69519589999982,r,1,0.5307016000006115,None,,,,sub-616546,001,2024-03-08_16h03.09.892,stroop_test,2023.2.3,59.94441953536665,2024-03-08 16h03.19.143465 +0100,
,,,,,,,,blau,yellow,g,0,,,,,,,,,3,10,46,7,220.71135649999997,,,,,,,,,,,,,,,,,220.69559270000173,221.04494279999926,221.8439451000013,221.8294511999993,,,,,,,,,,,,,,,,,,,,,,,,,,,,,,,,,,,221.82946169999923,221.8439451000013,221.8439451000013,222.9304544000006,g,1,1.078572999998869,None,,,,sub-616546,001,2024-03-08_16h03.09.892,stroop_test,2023.2.3,59.94441953536665,2024-03-08 16h03.19.143465 +0100,
,,,,,,,,rot,yellow,g,0,,,,,,,,,3,11,47,3,222.94646600000124,,,,,,,,,,,,,,,,,222.9308665000026,224.13081210000018,224.9298474999996,224.91514860000098,,,,,,,,,,,,,,,,,,,,,,,,,,,,,,,,,,,224.91516160000174,224.9298474999996,224.9298474999996,225.91606759999922,g,1,0.9757232000010845,None,,,,sub-616546,001,2024-03-08_16h03.09.892,stroop_test,2023.2.3,59.94441953536665,2024-03-08 16h03.19.143465 +0100,
,,,,,,,,gelb,red,r,0,,,,,,,,,4,0,48,8,225.93234330000269,,,,,,,,,,,,,,,,,225.91647320000266,226.26597680000123,227.06482809999943,227.05020010000226,,,,,,,,,,,,,,,,,,,,,,,,,,,,,,,,,,,227.05021560000023,227.06482809999943,227.06482809999943,228.03455790000226,r,1,0.9528766000003088,None,,,,sub-616546,001,2024-03-08_16h03.09.892,stroop_test,2023.2.3,59.94441953536665,2024-03-08 16h03.19.143465 +0100,
,,,,,,,,blau,blue,b,1,,,,,,,,,4,1,49,6,228.04913149999993,,,,,,,,,,,,,,,,,228.03498659999968,228.8513963000005,229.65046660000007,229.63572510000085,,,,,,,,,,,,,,,,,,,,,,,,,,,,,,,,,,,229.6357377000022,229.65046660000007,229.65046660000007,230.26789579999968,b,1,0.6069050999976753,None,,,,sub-616546,001,2024-03-08_16h03.09.892,stroop_test,2023.2.3,59.94441953536665,2024-03-08 16h03.19.143465 +0100,
,,,,,,,,rot,red,r,1,,,,,,,,,4,2,50,1,230.285973500002,,,,,,,,,,,,,,,,,230.26832579999973,231.4701382000021,232.26915050000025,232.25459240000055,,,,,,,,,,,,,,,,,,,,,,,,,,,,,,,,,,,232.25460419999945,232.26915050000025,232.26915050000025,232.73683259999962,r,1,0.46076689999972587,None,,,,sub-616546,001,2024-03-08_16h03.09.892,stroop_test,2023.2.3,59.94441953536665,2024-03-08 16h03.19.143465 +0100,
,,,,,,,,gelb,yellow,g,1,,,,,,,,,4,3,51,10,232.75464049999937,,,,,,,,,,,,,,,,,232.73738819999926,233.08826410000256,233.8872909999991,233.87240490000113,,,,,,,,,,,,,,,,,,,,,,,,,,,,,,,,,,,233.87241770000037,233.8872909999991,233.8872909999991,234.4215175999998,g,1,0.5229026999986672,None,,,,sub-616546,001,2024-03-08_16h03.09.892,stroop_test,2023.2.3,59.94441953536665,2024-03-08 16h03.19.143465 +0100,
,,,,,,,,gelb,yellow,g,1,,,,,,,,,4,4,52,11,234.43945520000125,,,,,,,,,,,,,,,,,234.42191850000017,234.52270510000017,235.32167739999932,235.30704870000045,,,,,,,,,,,,,,,,,,,,,,,,,,,,,,,,,,,235.30706199999986,235.32167739999932,235.32167739999932,235.9576694999996,g,1,0.6241205999976955,None,,,,sub-616546,001,2024-03-08_16h03.09.892,stroop_test,2023.2.3,59.94441953536665,2024-03-08 16h03.19.143465 +0100,
,,,,,,,,gelb,blue,b,0,,,,,,,,,4,5,53,9,235.9739374000019,,,,,,,,,,,,,,,,,235.95807490000152,237.15825450000193,237.9755447000025,237.95927870000014,,,,,,,,,,,,,,,,,,,,,,,,,,,,,,,,,,,237.9592909000021,237.9755447000025,237.9755447000025,238.84356409999964,b,1,0.866285300002346,None,,,,sub-616546,001,2024-03-08_16h03.09.892,stroop_test,2023.2.3,59.94441953536665,2024-03-08 16h03.19.143465 +0100,
,,,,,,,,rot,yellow,g,0,,,,,,,,,4,6,54,3,238.85964480000257,,,,,,,,,,,,,,,,,238.8439803000001,239.6436571000013,240.44259270000111,240.42799350000132,,,,,,,,,,,,,,,,,,,,,,,,,,,,,,,,,,,240.42800569999963,240.44259270000111,240.44259270000111,241.31044580000162,r,0,0.8549814999969385,None,,,,sub-616546,001,2024-03-08_16h03.09.892,stroop_test,2023.2.3,59.94441953536665,2024-03-08 16h03.19.143465 +0100,
,,,,,,,,rot,blue,b,0,,,,,,,,,4,7,55,2,241.32835610000257,,,,,,,,,,,,,,,,,241.31095990000176,242.1123832000012,242.91298800000004,242.8967526000015,,,,,,,,,,,,,,,,,,,,,,,,,,,,,,,,,,,242.89676529999997,242.91298800000004,242.91298800000004,243.78088670000216,b,1,0.8647610000007262,None,,,,sub-616546,001,2024-03-08_16h03.09.892,stroop_test,2023.2.3,59.94441953536665,2024-03-08 16h03.19.143465 +0100,
,,,,,,,,rot,red,r,1,,,,,,,,,4,8,56,0,243.79721730000165,,,,,,,,,,,,,,,,,243.78129479999916,244.58108139999968,245.3816751000013,245.3653301000013,,,,,,,,,,,,,,,,,,,,,,,,,,,,,,,,,,,245.36534240000037,245.3816751000013,245.3816751000013,246.09953410000162,r,1,0.7158176000011736,None,,,,sub-616546,001,2024-03-08_16h03.09.892,stroop_test,2023.2.3,59.94441953536665,2024-03-08 16h03.19.143465 +0100,
,,,,,,,,blau,blue,b,1,,,,,,,,,4,9,57,5,246.1157224000017,,,,,,,,,,,,,,,,,246.09994630000074,246.19756330000018,246.99800030000188,246.98172759999943,,,,,,,,,,,,,,,,,,,,,,,,,,,,,,,,,,,246.98173999999926,246.99800030000188,246.99800030000188,247.53254690000176,b,1,0.5319471000002522,None,,,,sub-616546,001,2024-03-08_16h03.09.892,stroop_test,2023.2.3,59.94441953536665,2024-03-08 16h03.19.143465 +0100,
,,,,,,,,blau,yellow,g,0,,,,,,,,,4,10,58,7,247.54856570000265,,,,,,,,,,,,,,,,,247.53296500000215,248.73277790000066,249.5351131000025,249.51711710000018,,,,,,,,,,,,,,,,,,,,,,,,,,,,,,,,,,,249.5171295,249.5351131000025,249.5351131000025,250.40310110000064,g,1,0.8505254999981844,None,,,,sub-616546,001,2024-03-08_16h03.09.892,stroop_test,2023.2.3,59.94441953536665,2024-03-08 16h03.19.143465 +0100,
,,,,,,,,blau,red,r,0,,,,,,,,,4,11,59,4,250.41919710000002,,,,,,,,,,,,,,,,,250.40367680000054,250.7512241000004,251.55353420000029,251.53703160000077,,,,,,,,,,,,,,,,,,,,,,,,,,,,,,,,,,,251.53704310000103,251.55353420000029,251.55353420000029,252.21954010000263,r,1,0.6560331000000588,None,,,,sub-616546,001,2024-03-08_16h03.09.892,stroop_test,2023.2.3,59.94441953536665,2024-03-08 16h03.19.143465 +0100,
,,,,,,,,rot,yellow,g,0,,,,,,,,,5,0,60,3,252.23737940000137,,,,,,,,,,,,,,,,,252.21996170000057,252.57106879999992,253.37002810000195,253.35525450000205,,,,,,,,,,,,,,,,,,,,,,,,,,,,,,,,,,,253.35526550000213,253.37002810000195,253.37002810000195,254.20463820000077,g,1,0.8235819000001356,None,,,,sub-616546,001,2024-03-08_16h03.09.892,stroop_test,2023.2.3,59.94441953536665,2024-03-08 16h03.19.143465 +0100,
,,,,,,,,gelb,yellow,g,1,,,,,,,,,5,1,61,10,254.2226150000024,,,,,,,,,,,,,,,,,254.2051261000015,254.55598570000075,255.35498220000227,255.34021620000203,,,,,,,,,,,,,,,,,,,,,,,,,,,,,,,,,,,255.3402289000005,255.35498220000227,255.35498220000227,255.89078150000205,g,1,0.5190325000003213,None,,,,sub-616546,001,2024-03-08_16h03.09.892,stroop_test,2023.2.3,59.94441953536665,2024-03-08 16h03.19.143465 +0100,
,,,,,,,,gelb,blue,b,0,,,,,,,,,5,2,62,9,255.90711510000256,,,,,,,,,,,,,,,,,255.89118270000108,256.2406609000027,257.041302900001,257.0249522000013,,,,,,,,,,,,,,,,,,,,,,,,,,,,,,,,,,,257.0249631000006,257.041302900001,257.041302900001,257.6090815000025,b,1,0.5523380000013276,None,,,,sub-616546,001,2024-03-08_16h03.09.892,stroop_test,2023.2.3,59.94441953536665,2024-03-08 16h03.19.143465 +0100,
,,,,,,,,gelb,red,r,0,,,,,,,,,5,3,63,8,257.6253312000008,,,,,,,,,,,,,,,,,257.6094976000022,257.95892280000044,258.75946920000206,258.74312850000206,,,,,,,,,,,,,,,,,,,,,,,,,,,,,,,,,,,258.74314070000037,258.75946920000206,258.75946920000206,259.72587679999924,r,1,0.9618317999993451,None,,,,sub-616546,001,2024-03-08_16h03.09.892,stroop_test,2023.2.3,59.94441953536665,2024-03-08 16h03.19.143465 +0100,
,,,,,,,,blau,blue,b,1,,,,,,,,,5,4,64,6,259.74360180000076,,,,,,,,,,,,,,,,,259.7262804999991,260.92795130000013,261.7270845000021,261.71068860000014,,,,,,,,,,,,,,,,,,,,,,,,,,,,,,,,,,,261.7107008999992,261.7270845000021,261.7270845000021,262.42815990000236,b,1,0.6994578000012552,None,,,,sub-616546,001,2024-03-08_16h03.09.892,stroop_test,2023.2.3,59.94441953536665,2024-03-08 16h03.19.143465 +0100,
,,,,,,,,rot,red,r,1,,,,,,,,,5,5,65,1,262.4458669000014,,,,,,,,,,,,,,,,,262.4285741999993,263.2299611000017,264.0287779999999,264.0141098999993,,,,,,,,,,,,,,,,,,,,,,,,,,,,,,,,,,,264.01412189999974,264.0287779999999,264.0287779999999,264.6814849000002,r,1,0.6365369999984978,None,,,,sub-616546,001,2024-03-08_16h03.09.892,stroop_test,2023.2.3,59.94441953536665,2024-03-08 16h03.19.143465 +0100,
,,,,,,,,rot,red,r,1,,,,,,,,,5,6,66,0,264.6976969999996,,,,,,,,,,,,,,,,,264.68192620000264,264.7812221999993,265.5817487000022,265.56540550000136,,,,,,,,,,,,,,,,,,,,,,,,,,,,,,,,,,,265.5654162999999,265.5817487000022,265.5817487000022,266.0161723000019,r,1,0.42002299999876413,None,,,,sub-616546,001,2024-03-08_16h03.09.892,stroop_test,2023.2.3,59.94441953536665,2024-03-08 16h03.19.143465 +0100,
,,,,,,,,blau,blue,b,1,,,,,,,,,5,7,67,5,266.03216769999926,,,,,,,,,,,,,,,,,266.0165796000001,267.21648920000007,268.01546769999914,268.00069540000186,,,,,,,,,,,,,,,,,,,,,,,,,,,,,,,,,,,268.0007084000026,268.01546769999914,268.01546769999914,268.58323870000095,b,1,0.5620406000016374,None,,,,sub-616546,001,2024-03-08_16h03.09.892,stroop_test,2023.2.3,59.94441953536665,2024-03-08 16h03.19.143465 +0100,
,,,,,,,,blau,yellow,g,0,,,,,,,,,5,8,68,7,268.60091530000136,,,,,,,,,,,,,,,,,268.5836612999992,268.6827732999991,269.4833608000008,269.46859810000024,,,,,,,,,,,,,,,,,,,,,,,,,,,,,,,,,,,269.4686108999995,269.4833608000008,269.4833608000008,270.5015005000023,g,1,1.0144263000001956,None,,,,sub-616546,001,2024-03-08_16h03.09.892,stroop_test,2023.2.3,59.94441953536665,2024-03-08 16h03.19.143465 +0100,
,,,,,,,,rot,blue,b,0,,,,,,,,,5,9,69,2,270.51770210000177,,,,,,,,,,,,,,,,,270.5019194000015,270.6025379999992,271.40159770000173,271.38688940000065,,,,,,,,,,,,,,,,,,,,,,,,,,,,,,,,,,,271.38690150000184,271.40159770000173,271.40159770000173,271.97093060000043,b,1,0.5677002000011271,None,,,,sub-616546,001,2024-03-08_16h03.09.892,stroop_test,2023.2.3,59.94441953536665,2024-03-08 16h03.19.143465 +0100,
,,,,,,,,blau,red,r,0,,,,,,,,,5,10,70,4,271.98710850000134,,,,,,,,,,,,,,,,,271.9713477000005,272.3207872000021,273.11992870000176,273.1049817999992,,,,,,,,,,,,,,,,,,,,,,,,,,,,,,,,,,,273.10499410000193,273.11992870000176,273.11992870000176,274.0209954999991,r,1,0.8902746999992814,None,,,,sub-616546,001,2024-03-08_16h03.09.892,stroop_test,2023.2.3,59.94441953536665,2024-03-08 16h03.19.143465 +0100,
,,,,,,,,gelb,yellow,g,1,,,,,,,,,5,11,71,11,274.03874930000165,,,,,,,,,,,,,,,,,274.02140879999934,275.22138579999955,276.02210449999984,276.0075558000026,,,,,,,,,,,,,,,,,,,,,,,,,,,,,,,,,,,276.00756810000166,276.02210449999984,276.02210449999984,276.7415270999991,g,1,0.7079679999988002,None,,,,sub-616546,001,2024-03-08_16h03.09.892,stroop_test,2023.2.3,59.94441953536665,2024-03-08 16h03.19.143465 +0100,
,,,,,,,,blau,yellow,g,0,,,,,,,,,6,0,72,7,276.75605050000013,,,,,,,,,,,,,,,,,276.7421116000005,277.5417383000022,278.34058890000233,278.32445709999956,,,,,,,,,,,,,,,,,,,,,,,,,,,,,,,,,,,278.32446920000075,278.34058890000233,278.34058890000233,278.99340440000014,g,1,0.6373079999975744,None,,,,sub-616546,001,2024-03-08_16h03.09.892,stroop_test,2023.2.3,59.94441953536665,2024-03-08 16h03.19.143465 +0100,
,,,,,,,,rot,red,r,1,,,,,,,,,6,1,73,1,279.0094930000014,,,,,,,,,,,,,,,,,278.99381809999977,280.19394509999984,280.99287470000127,280.97815830000036,,,,,,,,,,,,,,,,,,,,,,,,,,,,,,,,,,,280.9781705000023,280.99287470000127,280.99287470000127,281.7607018000017,r,1,0.7604587000023457,None,,,,sub-616546,001,2024-03-08_16h03.09.892,stroop_test,2023.2.3,59.94441953536665,2024-03-08 16h03.19.143465 +0100,
,,,,,,,,rot,yellow,g,0,,,,,,,,,6,2,74,3,281.7788767999991,,,,,,,,,,,,,,,,,281.7610980000027,281.8619108000021,282.6626722000001,282.6463481999999,,,,,,,,,,,,,,,,,,,,,,,,,,,,,,,,,,,282.6463614000022,282.6626722000001,282.6626722000001,283.63061310000194,g,1,0.9551940000019385,None,,,,sub-616546,001,2024-03-08_16h03.09.892,stroop_test,2023.2.3,59.94441953536665,2024-03-08 16h03.19.143465 +0100,
,,,,,,,,blau,blue,b,1,,,,,,,,,6,3,75,5,283.64671210000233,,,,,,,,,,,,,,,,,283.63101590000224,284.4308493999997,285.22971880000114,285.2149691000013,,,,,,,,,,,,,,,,,,,,,,,,,,,,,,,,,,,285.2149801000014,285.22971880000114,285.22971880000114,285.8156581000003,b,1,0.5803770999991684,None,,,,sub-616546,001,2024-03-08_16h03.09.892,stroop_test,2023.2.3,59.94441953536665,2024-03-08 16h03.19.143465 +0100,
,,,,,,,,rot,red,r,1,,,,,,,,,6,4,76,0,285.8318951000001,,,,,,,,,,,,,,,,,285.8160706000017,286.16547130000254,286.9644867999996,286.9498332000003,,,,,,,,,,,,,,,,,,,,,,,,,,,,,,,,,,,286.94985559999986,286.9644867999996,286.9644867999996,287.83459420000145,r,1,0.8691551999982039,None,,,,sub-616546,001,2024-03-08_16h03.09.892,stroop_test,2023.2.3,59.94441953536665,2024-03-08 16h03.19.143465 +0100,
,,,,,,,,blau,red,r,0,,,,,,,,,6,5,77,4,287.8501271999994,,,,,,,,,,,,,,,,,287.8350238999992,288.2004500000003,288.9994637000018,288.9831938999996,,,,,,,,,,,,,,,,,,,,,,,,,,,,,,,,,,,288.9832064000002,288.9994637000018,288.9994637000018,289.8842371999999,r,1,0.8822225000003527,None,,,,sub-616546,001,2024-03-08_16h03.09.892,stroop_test,2023.2.3,59.94441953536665,2024-03-08 16h03.19.143465 +0100,
,,,,,,,,blau,blue,b,1,,,,,,,,,6,6,78,6,289.9018565000006,,,,,,,,,,,,,,,,,289.8846293000024,290.68596660000185,291.48484400000234,291.4701344999994,,,,,,,,,,,,,,,,,,,,,,,,,,,,,,,,,,,291.47014879999915,291.48484400000234,291.48484400000234,292.15278540000145,b,1,0.6536086999985855,None,,,,sub-616546,001,2024-03-08_16h03.09.892,stroop_test,2023.2.3,59.94441953536665,2024-03-08 16h03.19.143465 +0100,
,,,,,,,,gelb,red,r,0,,,,,,,,,6,7,79,8,292.17035170000236,,,,,,,,,,,,,,,,,292.1531930000019,292.2521884000016,293.0527672999997,293.0380891999994,,,,,,,,,,,,,,,,,,,,,,,,,,,,,,,,,,,293.0381035999999,293.0527672999997,293.0527672999997,294.13929220000136,r,1,1.0848551999988558,None,,,,sub-616546,001,2024-03-08_16h03.09.892,stroop_test,2023.2.3,59.94441953536665,2024-03-08 16h03.19.143465 +0100,
,,,,,,,,gelb,blue,b,0,,,,,,,,,6,8,80,9,294.1554429000025,,,,,,,,,,,,,,,,,294.1397055000016,294.2387897000008,295.0394747999999,295.02315910000107,,,,,,,,,,,,,,,,,,,,,,,,,,,,,,,,,,,295.0231712999994,295.0394747999999,295.0394747999999,295.6222903000016,b,1,0.578729500000918,None,,,,sub-616546,001,2024-03-08_16h03.09.892,stroop_test,2023.2.3,59.94441953536665,2024-03-08 16h03.19.143465 +0100,
,,,,,,,,gelb,yellow,g,1,,,,,,,,,6,9,81,11,295.64001700000154,,,,,,,,,,,,,,,,,295.6227049000008,295.7234543000013,296.52400080000007,296.5076021999994,,,,,,,,,,,,,,,,,,,,,,,,,,,,,,,,,,,296.50761440000133,296.52400080000007,296.52400080000007,297.34199120000267,g,1,0.8055672000009508,None,,,,sub-616546,001,2024-03-08_16h03.09.892,stroop_test,2023.2.3,59.94441953536665,2024-03-08 16h03.19.143465 +0100,
,,,,,,,,rot,blue,b,0,,,,,,,,,6,10,82,2,297.35636140000133,,,,,,,,,,,,,,,,,297.3424950000008,298.1420466000018,298.94095740000193,298.92634180000096,,,,,,,,,,,,,,,,,,,,,,,,,,,,,,,,,,,298.9263538000014,298.94095740000193,298.94095740000193,299.69225780000124,b,1,0.7485574999991513,None,,,,sub-616546,001,2024-03-08_16h03.09.892,stroop_test,2023.2.3,59.94441953536665,2024-03-08 16h03.19.143465 +0100,
,,,,,,,,gelb,yellow,g,1,,,,,,,,,6,11,83,10,299.7100261000014,,,,,,,,,,,,,,,,,299.6927233000024,300.8944069999998,301.6932450000022,301.6785873000008,,,,,,,,,,,,,,,,,,,,,,,,,,,,,,,,,,,301.67859840000165,301.6932450000022,301.6932450000022,302.3277971000025,g,1,0.6205551999992167,None,,,,sub-616546,001,2024-03-08_16h03.09.892,stroop_test,2023.2.3,59.94441953536665,2024-03-08 16h03.19.143465 +0100,
,,,,,,,,blau,blue,b,1,,,,,,,,,7,0,84,6,302.3454935000009,,,,,,,,,,,,,,,,,302.32820530000026,303.1297430000013,303.9285321000025,303.9136875000004,,,,,,,,,,,,,,,,,,,,,,,,,,,,,,,,,,,303.91369850000046,303.9285321000025,303.9285321000025,304.496173800002,b,1,0.5610966999993252,None,,,,sub-616546,001,2024-03-08_16h03.09.892,stroop_test,2023.2.3,59.94441953536665,2024-03-08 16h03.19.143465 +0100,
,,,,,,,,gelb,yellow,g,1,,,,,,,,,7,1,85,10,304.51395500000217,,,,,,,,,,,,,,,,,304.4965907000005,305.2980251000008,306.0969275999996,306.0821954999992,,,,,,,,,,,,,,,,,,,,,,,,,,,,,,,,,,,306.08220710000023,306.0969275999996,306.0969275999996,306.98145060000024,g,1,0.8726620999987063,None,,,,sub-616546,001,2024-03-08_16h03.09.892,stroop_test,2023.2.3,59.94441953536665,2024-03-08 16h03.19.143465 +0100,
,,,,,,,,blau,red,r,0,,,,,,,,,7,2,86,4,306.9994063000013,,,,,,,,,,,,,,,,,306.98198520000005,308.18369950000124,308.98269269999946,308.9678860000022,,,,,,,,,,,,,,,,,,,,,,,,,,,,,,,,,,,308.9678973000009,308.98269269999946,308.98269269999946,309.70041250000213,r,1,0.7066801000000851,None,,,,sub-616546,001,2024-03-08_16h03.09.892,stroop_test,2023.2.3,59.94441953536665,2024-03-08 16h03.19.143465 +0100,
,,,,,,,,rot,red,r,1,,,,,,,,,7,3,87,1,309.7182642000007,,,,,,,,,,,,,,,,,309.7008253999993,310.5004829999998,311.30113429999983,311.2865496000013,,,,,,,,,,,,,,,,,,,,,,,,,,,,,,,,,,,311.2865641999997,311.30113429999983,311.30113429999983,311.76879100000224,r,1,0.46199280000291765,None,,,,sub-616546,001,2024-03-08_16h03.09.892,stroop_test,2023.2.3,59.94441953536665,2024-03-08 16h03.19.143465 +0100,
,,,,,,,,gelb,blue,b,0,,,,,,,,,7,4,88,9,311.7850608000008,,,,,,,,,,,,,,,,,311.7692000999996,312.5706033999995,313.37124210000184,313.3550369000004,,,,,,,,,,,,,,,,,,,,,,,,,,,,,,,,,,,313.35504890000084,313.37124210000184,313.37124210000184,314.62285239999983,b,1,1.2460312999974121,None,,,,sub-616546,001,2024-03-08_16h03.09.892,stroop_test,2023.2.3,59.94441953536665,2024-03-08 16h03.19.143465 +0100,
,,,,,,,,blau,yellow,g,0,,,,,,,,,7,5,89,7,314.63904600000023,,,,,,,,,,,,,,,,,314.62324980000267,314.97255980000045,315.77153530000214,315.75694550000117,,,,,,,,,,,,,,,,,,,,,,,,,,,,,,,,,,,315.75695760000235,315.77153530000214,315.77153530000214,316.57274099999995,g,1,0.7902616999999736,None,,,,sub-616546,001,2024-03-08_16h03.09.892,stroop_test,2023.2.3,59.94441953536665,2024-03-08 16h03.19.143465 +0100,
,,,,,,,,rot,yellow,g,0,,,,,,,,,7,6,90,3,316.5906591999992,,,,,,,,,,,,,,,,,316.5731650000016,317.3745462000006,318.17351079999935,318.158882300002,,,,,,,,,,,,,,,,,,,,,,,,,,,,,,,,,,,318.15889420000167,318.17351079999935,318.17351079999935,318.89309250000224,g,1,0.7079905999999028,None,,,,sub-616546,001,2024-03-08_16h03.09.892,stroop_test,2023.2.3,59.94441953536665,2024-03-08 16h03.19.143465 +0100,
,,,,,,,,gelb,yellow,g,1,,,,,,,,,7,7,91,11,318.90921549999985,,,,,,,,,,,,,,,,,318.8934969000002,320.0919868000019,320.8925166000008,320.8762956999999,,,,,,,,,,,,,,,,,,,,,,,,,,,,,,,,,,,320.87630830000126,320.8925166000008,320.8925166000008,321.4601490999994,g,1,0.5647639999988314,None,,,,sub-616546,001,2024-03-08_16h03.09.892,stroop_test,2023.2.3,59.94441953536665,2024-03-08 16h03.19.143465 +0100,
,,,,,,,,blau,blue,b,1,,,,,,,,,7,8,92,5,321.4779694000026,,,,,,,,,,,,,,,,,321.46055360000173,322.2620038999994,323.0610154999995,323.04628370000137,,,,,,,,,,,,,,,,,,,,,,,,,,,,,,,,,,,323.04629639999985,323.0610154999995,323.0610154999995,323.6136735,b,1,0.5491266999997606,None,,,,sub-616546,001,2024-03-08_16h03.09.892,stroop_test,2023.2.3,59.94441953536665,2024-03-08 16h03.19.143465 +0100,
,,,,,,,,rot,blue,b,0,,,,,,,,,7,9,93,2,323.6281409000003,,,,,,,,,,,,,,,,,323.6140864000008,324.4137183000021,325.21267910000097,325.1980971000012,,,,,,,,,,,,,,,,,,,,,,,,,,,,,,,,,,,325.1981089000001,325.21267910000097,325.21267910000097,325.9155991000007,b,1,0.7015291000025172,None,,,,sub-616546,001,2024-03-08_16h03.09.892,stroop_test,2023.2.3,59.94441953536665,2024-03-08 16h03.19.143465 +0100,
,,,,,,,,gelb,red,r,0,,,,,,,,,7,10,94,8,325.93176460000177,,,,,,,,,,,,,,,,,325.9160365000025,327.131090400002,327.93331020000187,327.91692970000076,,,,,,,,,,,,,,,,,,,,,,,,,,,,,,,,,,,327.91694070000085,327.93331020000187,327.93331020000187,328.66637790000095,r,1,0.7243280000002414,None,,,,sub-616546,001,2024-03-08_16h03.09.892,stroop_test,2023.2.3,59.94441953536665,2024-03-08 16h03.19.143465 +0100,
,,,,,,,,rot,red,r,1,,,,,,,,,7,11,95,0,328.6840523999999,,,,,,,,,,,,,,,,,328.6668616999996,328.76732710000215,329.56629339999927,329.55170780000117,,,,,,,,,,,,,,,,,,,,,,,,,,,,,,,,,,,329.5517183000011,329.56629339999927,329.56629339999927,330.3026224000023,r,1,0.7309713999966334,None,,,,sub-616546,001,2024-03-08_16h03.09.892,stroop_test,2023.2.3,59.94441953536665,2024-03-08 16h03.19.143465 +0100,
,,,,,,,,gelb,yellow,g,1,,,,,,,,,8,0,96,11,330.31872529999964,,,,,,,,,,,,,,,,,330.3032048000023,330.41877380000005,331.2360206000012,331.21825290000197,,,,,,,,,,,,,,,,,,,,,,,,,,,,,,,,,,,331.2182657000012,331.2360206000012,331.2360206000012,331.88556120000067,g,1,0.6451897000006284,None,,,,sub-616546,001,2024-03-08_16h03.09.892,stroop_test,2023.2.3,59.94441953536665,2024-03-08 16h03.19.143465 +0100,
,,,,,,,,blau,blue,b,1,,,,,,,,,8,1,97,5,331.90332689999923,,,,,,,,,,,,,,,,,331.88596619999953,333.08763589999944,333.8865732000013,333.8718881999994,,,,,,,,,,,,,,,,,,,,,,,,,,,,,,,,,,,333.87190069999997,333.8865732000013,333.8865732000013,334.4708425000026,b,1,0.5789795000018785,None,,,,sub-616546,001,2024-03-08_16h03.09.892,stroop_test,2023.2.3,59.94441953536665,2024-03-08 16h03.19.143465 +0100,
,,,,,,,,gelb,blue,b,0,,,,,,,,,8,2,98,9,334.4888529000018,,,,,,,,,,,,,,,,,334.47124800000165,334.8225373000023,335.6215566999999,335.6067077000007,,,,,,,,,,,,,,,,,,,,,,,,,,,,,,,,,,,335.60672239999985,335.6215566999999,335.6215566999999,336.50762830000167,b,1,0.8759896000010485,None,,,,sub-616546,001,2024-03-08_16h03.09.892,stroop_test,2023.2.3,59.94441953536665,2024-03-08 16h03.19.143465 +0100,
,,,,,,,,blau,blue,b,1,,,,,,,,,8,3,99,6,336.5221154999999,,,,,,,,,,,,,,,,,336.5080385000001,337.72314299999925,338.5236928000013,338.50743010000224,,,,,,,,,,,,,,,,,,,,,,,,,,,,,,,,,,,338.5074459999996,338.5236928000013,338.5236928000013,338.9929437999999,b,1,0.4543362000003981,None,,,,sub-616546,001,2024-03-08_16h03.09.892,stroop_test,2023.2.3,59.94441953536665,2024-03-08 16h03.19.143465 +0100,
,,,,,,,,rot,red,r,1,,,,,,,,,8,4,100,0,339.00765610000235,,,,,,,,,,,,,,,,,338.993336800002,339.3427341000024,340.1417336000013,340.1271968000001,,,,,,,,,,,,,,,,,,,,,,,,,,,,,,,,,,,340.1272099000016,340.1417336000013,340.1417336000013,340.69292250000217,r,1,0.5479708999991999,None,,,,sub-616546,001,2024-03-08_16h03.09.892,stroop_test,2023.2.3,59.94441953536665,2024-03-08 16h03.19.143465 +0100,
,,,,,,,,gelb,red,r,0,,,,,,,,,8,5,101,8,340.71057479999945,,,,,,,,,,,,,,,,,340.69334380000146,341.0441322000006,341.84318429999985,341.8267889000017,,,,,,,,,,,,,,,,,,,,,,,,,,,,,,,,,,,341.8268014000023,341.84318429999985,341.84318429999985,342.7778231000011,r,1,0.9261418000023696,None,,,,sub-616546,001,2024-03-08_16h03.09.892,stroop_test,2023.2.3,59.94441953536665,2024-03-08 16h03.19.143465 +0100,
,,,,,,,,rot,yellow,g,0,,,,,,,,,8,6,102,3,342.7939683000004,,,,,,,,,,,,,,,,,342.7782367,343.9800114000027,344.7789722000016,344.7643124999995,,,,,,,,,,,,,,,,,,,,,,,,,,,,,,,,,,,344.76432449999993,344.7789722000016,344.7789722000016,346.3490950000014,g,1,1.5518083999995724,None,,,,sub-616546,001,2024-03-08_16h03.09.892,stroop_test,2023.2.3,59.94441953536665,2024-03-08 16h03.19.143465 +0100,
,,,,,,,,blau,red,r,0,,,,,,,,,8,7,103,4,346.3636096000009,,,,,,,,,,,,,,,,,346.3495365000017,346.6972917999992,347.4978040999995,347.4830909000011,,,,,,,,,,,,,,,,,,,,,,,,,,,,,,,,,,,347.48310680000213,347.4978040999995,347.4978040999995,348.18228680000175,r,1,0.6713815000002796,None,,,,sub-616546,001,2024-03-08_16h03.09.892,stroop_test,2023.2.3,59.94441953536665,2024-03-08 16h03.19.143465 +0100,
,,,,,,,,rot,red,r,1,,,,,,,,,8,8,104,1,348.200114700001,,,,,,,,,,,,,,,,,348.1826882000023,348.5337017999991,349.332637800002,349.31800280000243,,,,,,,,,,,,,,,,,,,,,,,,,,,,,,,,,,,349.31801460000133,349.332637800002,349.332637800002,349.76853760000085,r,1,0.42925819999800297,None,,,,sub-616546,001,2024-03-08_16h03.09.892,stroop_test,2023.2.3,59.94441953536665,2024-03-08 16h03.19.143465 +0100,
,,,,,,,,blau,yellow,g,0,,,,,,,,,8,9,105,7,349.78477470000144,,,,,,,,,,,,,,,,,349.7689501999994,350.9674371000001,351.7679511000024,351.7533829999993,,,,,,,,,,,,,,,,,,,,,,,,,,,,,,,,,,,351.75339520000125,351.7679511000024,351.7679511000024,352.537530900001,g,1,0.7618289000020013,None,,,,sub-616546,001,2024-03-08_16h03.09.892,stroop_test,2023.2.3,59.94441953536665,2024-03-08 16h03.19.143465 +0100,
,,,,,,,,rot,blue,b,0,,,,,,,,,8,10,106,2,352.55376700000124,,,,,,,,,,,,,,,,,352.5379627000002,353.73787880000236,354.5370131000018,354.52088899999944,,,,,,,,,,,,,,,,,,,,,,,,,,,,,,,,,,,354.520900800002,354.5370131000018,354.5370131000018,355.6551010000003,b,1,1.11306870000044,None,,,,sub-616546,001,2024-03-08_16h03.09.892,stroop_test,2023.2.3,59.94441953536665,2024-03-08 16h03.19.143465 +0100,
,,,,,,,,gelb,yellow,g,1,,,,,,,,,8,11,107,10,355.6728852000015,,,,,,,,,,,,,,,,,355.6554915000015,356.8557288000011,357.65621490000194,357.6415349000017,,,,,,,,,,,,,,,,,,,,,,,,,,,,,,,,,,,357.6415479000025,357.65621490000194,357.65621490000194,358.5758105999994,g,1,0.9141104000009364,None,,,,sub-616546,001,2024-03-08_16h03.09.892,stroop_test,2023.2.3,59.94441953536665,2024-03-08 16h03.19.143465 +0100,
,,,,,,,,gelb,yellow,g,1,,,,,,,,,9,0,108,11,358.5906094999991,,,,,,,,,,,,,,,,,358.57622289999927,358.67375190000166,359.47606110000197,359.4582248000006,,,,,,,,,,,,,,,,,,,,,,,,,,,,,,,,,,,359.4582377000006,359.47606110000197,359.47606110000197,359.8936247999991,g,1,0.405713599997398,None,,,,sub-616546,001,2024-03-08_16h03.09.892,stroop_test,2023.2.3,59.94441953536665,2024-03-08 16h03.19.143465 +0100,
,,,,,,,,blau,blue,b,1,,,,,,,,,9,1,109,6,359.909801400001,,,,,,,,,,,,,,,,,359.894024600002,359.993311000002,360.79220970000097,360.77736880000157,,,,,,,,,,,,,,,,,,,,,,,,,,,,,,,,,,,360.7773801000003,360.79220970000097,360.79220970000097,361.3264139000021,b,1,0.5210286000001361,None,,,,sub-616546,001,2024-03-08_16h03.09.892,stroop_test,2023.2.3,59.94441953536665,2024-03-08 16h03.19.143465 +0100,
,,,,,,,,gelb,yellow,g,1,,,,,,,,,9,2,110,10,361.3443659000004,,,,,,,,,,,,,,,,,361.32682750000095,361.42601690000083,362.2266474999997,362.2121238,,,,,,,,,,,,,,,,,,,,,,,,,,,,,,,,,,,362.21213910000006,362.2266474999997,362.2266474999997,362.84444480000093,g,1,0.607076699998288,None,,,,sub-616546,001,2024-03-08_16h03.09.892,stroop_test,2023.2.3,59.94441953536665,2024-03-08 16h03.19.143465 +0100,
,,,,,,,,blau,blue,b,1,,,,,,,,,9,3,111,5,362.8622624000018,,,,,,,,,,,,,,,,,362.8449169000014,363.6462517,364.4453152999995,364.43048160000035,,,,,,,,,,,,,,,,,,,,,,,,,,,,,,,,,,,364.4304967999997,364.4453152999995,364.4453152999995,364.93114290000085,b,1,0.4845820000009553,None,,,,sub-616546,001,2024-03-08_16h03.09.892,stroop_test,2023.2.3,59.94441953536665,2024-03-08 16h03.19.143465 +0100,
,,,,,,,,rot,red,r,1,,,,,,,,,9,4,112,0,364.94727799999964,,,,,,,,,,,,,,,,,364.93155359999946,366.13150920000044,366.93066159999944,366.9161645000022,,,,,,,,,,,,,,,,,,,,,,,,,,,,,,,,,,,366.9161767000005,366.93066159999944,366.93066159999944,367.5484380000016,r,1,0.6069139999999607,None,,,,sub-616546,001,2024-03-08_16h03.09.892,stroop_test,2023.2.3,59.94441953536665,2024-03-08 16h03.19.143465 +0100,
,,,,,,,,blau,yellow,g,0,,,,,,,,,9,5,113,7,367.5661078000012,,,,,,,,,,,,,,,,,367.5488504999994,368.7504575000021,369.5494515999999,369.5347073000012,,,,,,,,,,,,,,,,,,,,,,,,,,,,,,,,,,,369.53471870000067,369.5494515999999,369.5494515999999,370.80268310000247,g,1,1.244068200001493,None,,,,sub-616546,001,2024-03-08_16h03.09.892,stroop_test,2023.2.3,59.94441953536665,2024-03-08 16h03.19.143465 +0100,
,,,,,,,,rot,blue,b,0,,,,,,,,,9,6,114,2,370.8188553,,,,,,,,,,,,,,,,,370.80309780000243,371.6027725000022,372.4017950000016,372.385523500001,,,,,,,,,,,,,,,,,,,,,,,,,,,,,,,,,,,372.38553590000083,372.4017950000016,372.4017950000016,373.0544824000026,b,1,0.6473559999976715,None,,,,sub-616546,001,2024-03-08_16h03.09.892,stroop_test,2023.2.3,59.94441953536665,2024-03-08 16h03.19.143465 +0100,
,,,,,,,,gelb,blue,b,0,,,,,,,,,9,7,115,9,373.0706624000013,,,,,,,,,,,,,,,,,373.0548846999991,374.25500060000195,375.05392120000033,375.0392098000011,,,,,,,,,,,,,,,,,,,,,,,,,,,,,,,,,,,375.0392223000017,375.05392120000033,375.05392120000033,375.53822570000193,b,1,0.4756448000007367,None,,,,sub-616546,001,2024-03-08_16h03.09.892,stroop_test,2023.2.3,59.94441953536665,2024-03-08 16h03.19.143465 +0100,
,,,,,,,,blau,red,r,0,,,,,,,,,9,8,116,4,375.55607640000017,,,,,,,,,,,,,,,,,375.5386464000003,376.74033070000223,377.5393436000013,377.52309310000055,,,,,,,,,,,,,,,,,,,,,,,,,,,,,,,,,,,377.52310520000174,377.5393436000013,377.5393436000013,378.1570919000005,r,1,0.6065624000002572,None,,,,sub-616546,001,2024-03-08_16h03.09.892,stroop_test,2023.2.3,59.94441953536665,2024-03-08 16h03.19.143465 +0100,
,,,,,,,,gelb,red,r,0,,,,,,,,,9,9,117,8,378.17496440000104,,,,,,,,,,,,,,,,,378.1574987000022,378.50845820000177,379.3075224999993,379.29277130000264,,,,,,,,,,,,,,,,,,,,,,,,,,,,,,,,,,,379.2927830000008,379.3075224999993,379.3075224999993,379.77673030000005,r,1,0.45399879999968107,None,,,,sub-616546,001,2024-03-08_16h03.09.892,stroop_test,2023.2.3,59.94441953536665,2024-03-08 16h03.19.143465 +0100,
,,,,,,,,rot,yellow,g,0,,,,,,,,,9,10,118,3,379.79280970000036,,,,,,,,,,,,,,,,,379.77719440000146,380.1265103000005,380.9254725999999,380.9107141000022,,,,,,,,,,,,,,,,,,,,,,,,,,,,,,,,,,,380.9107255000017,380.9254725999999,380.9254725999999,381.55978750000213,g,1,0.6281354000020656,None,,,,sub-616546,001,2024-03-08_16h03.09.892,stroop_test,2023.2.3,59.94441953536665,2024-03-08 16h03.19.143465 +0100,
,,,,,,,,rot,red,r,1,,,,,,,,,9,11,119,1,381.577696700002,,,,,,,,,,,,,,,,,381.5601908000026,382.7620390000011,383.56267990000197,383.54619699999967,,,,,,,,,,,,,,,,,,,,,,,,,,,,,,,,,,,383.5462093000024,383.56267990000197,383.56267990000197,384.18031580000024,r,1,0.6155777999993006,None,,,,sub-616546,001,2024-03-08_16h03.09.892,stroop_test,2023.2.3,59.94441953536665,2024-03-08 16h03.19.143465 +0100,
,,,,,,,,,,,,,,,,,,,,,,,,,,,,,,,,,,,,,,,,,,,,,,,,,,,,,,,,,,,,,,,,,,,,,,,,,,,,,,,,,,,,,,,384.18061300000045,384.19660450000083,389.182478900002,,,,,,,,
