direction,corrAns,practice_run_loop.thisRepN,practice_run_loop.thisTrialN,practice_run_loop.thisN,practice_run_loop.thisIndex,first_run_loop.thisRepN,first_run_loop.thisTrialN,first_run_loop.thisN,first_run_loop.thisIndex,second_run_loop.thisRepN,second_run_loop.thisTrialN,second_run_loop.thisN,second_run_loop.thisIndex,thisRow.t,notes,instruction.started,textInstr.started,respInstr.started,instruction.stopped,respInstr.keys,respInstr.rt,respInstr.duration,ITI.started,fixcross.started,fixcross.stopped,ITI.stopped,dots.started,backgroundDots.started,stimulusDots.started,respDots.started,backgroundDots.stopped,dots.stopped,respDots.keys,respDots.rt,respDots.duration,feedback.started,textFeedback.started,feedback.stopped,textFeedback.stopped,instruction_1.started,textSpeedInst.started,respSpeedInstr.started,instruction_1.stopped,respSpeedInstr.keys,respSpeedInstr.rt,respSpeedInstr.duration,instruction_2.started,textAccuracyInstr.started,respAccuracyInstr.started,instruction_2.stopped,respAccuracyInstr.keys,respAccuracyInstr.rt,respAccuracyInstr.duration,goodbye.started,goodbye_text.started,goodbye_text.stopped,goodbye.stopped,participant,session,date,expName,psychopyVersion,frameRate,expStart,
,,,,,,,,,,,,,,,,0.013142582989530638,0.022243082989007235,0.022243082989007235,1.441732665989548,space,1.384916874987539,0.033177917008288205,,,,,,,,,,,,,,,,,,,,,,,,,,,,,,,,,,,,df,001,2024-03-08_13h20.46.758,random_dot,2023.2.3,None,2024-03-08 13h21.01.345886 +0100,
right,right,0,0,0,1,,,,,,,,,1.4751851249893662,,,,,,,,,1.4646162079880014,1.7946055829816032,2.592069749982329,2.578938124992419,2.57896004099166,2.592069749982329,2.592069749982329,2.698116999992635,3.370800540986238,3.466525833006017,right,0.7671462080033962,None,3.467246082989732,3.4844075409928337,3.9711913329956587,,,,,,,,,,,,,,,,,,,,df,001,2024-03-08_13h20.46.758,random_dot,2023.2.3,None,2024-03-08 13h21.01.345886 +0100,
left,left,0,1,1,0,,,,,,,,,3.9817559999937657,,,,,,,,,3.971734082995681,4.065055790997576,4.858055791002698,4.848999540990917,4.8490285410080105,4.858055791002698,4.858055791002698,4.939585790998535,,5.464892707997933,left,0.5160991249722429,None,5.465326000005007,5.471773958008271,5.954759457992623,5.96514987500268,,,,,,,,,,,,,,,,,,,df,001,2024-03-08_13h20.46.758,random_dot,2023.2.3,None,2024-03-08 13h21.01.345886 +0100,
left,left,1,0,2,0,,,,,,,,,5.96514987500268,,,,,,,,,5.955221874988638,6.306935625005281,7.108002666005632,7.099105957982829,7.099134874995798,7.108002666005632,7.108002666005632,7.198373416002141,7.89844562500366,7.886654625006486,left,0.667641125008231,0.004659917001845315,7.8870429579983465,7.89844562500366,8.382286332984222,8.388124457997037,,,,,,,,,,,,,,,,,,,df,001,2024-03-08_13h20.46.758,random_dot,2023.2.3,None,2024-03-08 13h21.01.345886 +0100,
right,right,1,1,3,1,,,,,,,,,8.388124457997037,,,,,,,,,8.382851165981265,8.481728540995391,9.27390054098214,9.265490290999878,9.265511707984842,9.27390054098214,9.27390054098214,9.364251249993686,,9.939108374994248,right,0.570104500016896,None,9.93949462499586,9.947478332993342,10.431784665997839,10.437171291006962,,,,,,,,,,,,,,,,,,,df,001,2024-03-08_13h20.46.758,random_dot,2023.2.3,None,2024-03-08 13h21.01.345886 +0100,
left,left,2,0,4,0,,,,,,,,,10.437171291006962,,,,,,,,,10.432253832987044,10.539599749987246,11.340785415988648,11.332038416003343,11.332061875000363,11.340785415988648,11.340785415988648,11.43142091599293,12.095458833005978,12.08218900000793,right,0.6477243749832269,None,12.082580874994164,12.095458833005978,12.582241333002457,12.587536125007318,,,,,,,,,,,,,,,,,,,df,001,2024-03-08_13h20.46.758,random_dot,2023.2.3,None,2024-03-08 13h21.01.345886 +0100,
right,right,2,1,5,1,,,,,,,,,12.587536125007318,,,,,,,,,12.582705957989674,12.67259262499283,13.474682250001933,13.46566829099902,13.465697457984788,13.474682250001933,13.474682250001933,13.557159541000146,14.248346000007587,14.289163165987702,left,0.7296259999857284,None,14.289607749989955,14.29771516600158,14.782315082993591,14.787544582999544,,,,,,,,,,,,,,,,,,,df,001,2024-03-08_13h20.46.758,random_dot,2023.2.3,None,2024-03-08 13h21.01.345886 +0100,
right,right,3,0,6,1,,,,,,,,,14.787544582999544,,,,,,,,,14.782775291008875,15.989667624991853,16.790680332982447,16.782264790992485,16.7822897080041,16.790680332982447,16.790680332982447,16.881437083007768,,17.440019582980312,right,0.5574583330017049,None,17.44040245798533,17.451000125001883,17.93918487499468,17.948494040989317,,,,,,,,,,,,,,,,,,,df,001,2024-03-08_13h20.46.758,random_dot,2023.2.3,None,2024-03-08 13h21.01.345886 +0100,
left,left,3,1,7,0,,,,,,,,,17.948494040989317,,,,,,,,,17.93964962498285,19.13996087500709,19.940108540991787,19.931804457999533,19.93182887500734,19.940108540991787,19.940108540991787,20.02223420800874,,20.67499741600477,left,0.6432149999891408,0.004600000014761463,20.675404207984684,20.681758082995657,21.16529779098346,21.1704667499871,,,,,,,,,,,,,,,,,,,df,001,2024-03-08_13h20.46.758,random_dot,2023.2.3,None,2024-03-08 13h21.01.345886 +0100,
left,left,4,0,8,0,,,,,,,,,21.1704667499871,,,,,,,,,21.16567504100385,21.27243520799675,22.07336187499459,22.065530082996702,22.065550790983252,22.07336187499459,22.07336187499459,22.164288083004067,22.82044841599418,22.840071874990826,left,0.6678738329792395,0.006102042010752484,22.84043208300136,22.84760633300175,23.33222470799228,23.337455625005532,,,,,,,,,,,,,,,,,,,df,001,2024-03-08_13h20.46.758,random_dot,2023.2.3,None,2024-03-08 13h21.01.345886 +0100,
right,right,4,1,9,1,,,,,,,,,23.337455625005532,,,,,,,,,23.332682790991385,24.140092165995156,24.94067008298589,24.93220908299554,24.932230624981457,24.94067008298589,24.94067008298589,25.03093329098192,25.68698183298693,25.799993583001196,left,0.7600349580170587,0.007733374979579821,25.80052441600128,25.812145040981704,26.298880249989452,26.304168999980902,,,,,,,,,,,,,,,,,,,df,001,2024-03-08_13h20.46.758,random_dot,2023.2.3,None,2024-03-08 13h21.01.345886 +0100,
right,right,5,0,10,1,,,,,,,,,26.304168999980902,,,,,,,,,26.299342374986736,27.098412291001296,27.89140891598072,27.882472166005755,27.88250183299533,27.89140891598072,27.89140891598072,27.98158724998939,28.665048791008303,28.76585949998116,right,0.7772182499757037,None,28.76629491598578,28.777430832997197,29.265774500003317,29.271509332989808,,,,,,,,,,,,,,,,,,,df,001,2024-03-08_13h20.46.758,random_dot,2023.2.3,None,2024-03-08 13h21.01.345886 +0100,
left,left,5,1,11,0,,,,,,,,,29.271509332989808,,,,,,,,,29.266364165989216,30.065159124991624,30.857991833006963,30.849123166000936,30.849154625000665,30.857991833006963,30.857991833006963,30.948350541002583,,31.63286041599349,left,0.6834082919813227,None,31.6332984159817,31.640826082992135,32.1323140829918,32.13773970800685,,,,,,,,,,,,,,,,,,,df,001,2024-03-08_13h20.46.758,random_dot,2023.2.3,None,2024-03-08 13h21.01.345886 +0100,
left,left,6,0,12,0,,,,,,,,,32.13773970800685,,,,,,,,,32.13277266599471,32.23185512499185,33.02395487498143,33.01559100000304,33.01561491598841,33.02395487498143,33.02395487498143,33.114207375008846,33.77027574999374,34.27289849999943,left,1.1560007919906639,None,34.2734377909801,34.298177457996644,34.781285250006476,,,,,,,,,,,,,,,,,,,,df,001,2024-03-08_13h20.46.758,random_dot,2023.2.3,None,2024-03-08 13h21.01.345886 +0100,
right,right,6,1,13,1,,,,,,,,,34.78670087500359,,,,,,,,,34.78174520799075,34.872253332985565,35.67395033300272,35.66553966599167,35.66556349999155,35.67395033300272,35.67395033300272,35.76503725000657,36.42007854100666,36.8725339579978,right,1.1055022919899784,None,36.87307862500893,36.88188720800099,37.36558633300592,37.37084195800708,,,,,,,,,,,,,,,,,,,df,001,2024-03-08_13h20.46.758,random_dot,2023.2.3,None,2024-03-08 13h21.01.345886 +0100,
right,right,7,0,14,1,,,,,,,,,37.37084195800708,,,,,,,,,37.36602658298216,37.472668915987015,38.27457399998093,38.26578920800239,38.265815416001715,38.27457399998093,38.27457399998093,38.36445399999502,39.02008620798006,39.38258558299276,left,1.0108566249837168,None,39.383107832982205,39.396171125001274,39.88250762500684,39.888082999998005,,,,,,,,,,,,,,,,,,,df,001,2024-03-08_13h20.46.758,random_dot,2023.2.3,None,2024-03-08 13h21.01.345886 +0100,
left,left,7,1,15,0,,,,,,,,,39.888082999998005,,,,,,,,,39.88298991599004,41.0818223329843,41.87396391600487,41.865118499990785,41.86513958298019,41.87396391600487,41.87396391600487,41.96517691598274,42.62003950000508,42.99997849998181,right,1.0333924579899758,None,43.00051225000061,43.00914549999288,43.49910566600738,43.50494250000338,,,,,,,,,,,,,,,,,,,df,001,2024-03-08_13h20.46.758,random_dot,2023.2.3,None,2024-03-08 13h21.01.345886 +0100,
right,right,8,0,16,1,,,,,,,,,43.50494250000338,,,,,,,,,43.499674374994356,43.59831724999822,44.391582665994065,44.3825716660067,44.382600374985486,44.391582665994065,44.391582665994065,44.473491540993564,45.16493904098752,45.25569424999412,right,0.7803728340077214,None,45.256227250007214,45.26767187498626,45.754832165985135,45.765263415989466,,,,,,,,,,,,,,,,,,,df,001,2024-03-08_13h20.46.758,random_dot,2023.2.3,None,2024-03-08 13h21.01.345886 +0100,
left,left,8,1,17,0,,,,,,,,,45.765263415989466,,,,,,,,,45.755319832998794,45.8564366659848,46.65736220800318,46.649094458000036,46.64911904098699,46.65736220800318,46.65736220800318,46.74810245799017,47.40334070799872,47.41601408299175,left,0.6587515409919433,None,47.416442249988904,47.424673582980176,47.91574362499523,47.921600250003394,,,,,,,,,,,,,,,,,,,df,001,2024-03-08_13h20.46.758,random_dot,2023.2.3,None,2024-03-08 13h21.01.345886 +0100,
right,right,9,0,18,1,,,,,,,,,47.921600250003394,,,,,,,,,47.91631487500854,48.71520937499008,49.507859582983656,49.499072332982905,49.499098083004355,49.507859582983656,49.507859582983656,49.59822625000379,50.27055987500353,50.28254333298537,right,0.6805593330063857,None,50.28297479098546,50.29082391600241,50.782371000008425,50.78764912500628,,,,,,,,,,,,,,,,,,,df,001,2024-03-08_13h20.46.758,random_dot,2023.2.3,None,2024-03-08 13h21.01.345886 +0100,
left,left,9,1,19,0,,,,,,,,,50.78764912500628,,,,,,,,,50.78282324998872,51.98127491600462,52.774180457985494,52.76557099999627,52.765595540986396,52.774180457985494,52.774180457985494,52.85615449998295,53.60430033298326,53.80865966598503,right,0.9431108749995474,0.007262166996952146,53.80919170798734,53.81881150000845,54.30505287498818,54.33578270798898,,,,,,,,,,,,,,,,,,,df,001,2024-03-08_13h20.46.758,random_dot,2023.2.3,None,2024-03-08 13h21.01.345886 +0100,
,,,,,,,,,,,,,,,,,,,,,,,,,,,,,,,,,,,,,,,,54.3051455829991,54.33578270798898,54.33578270798898,174.33850524999434,space,119.99820974998875,None,,,,,,,,,,,,df,001,2024-03-08_13h20.46.758,random_dot,2023.2.3,None,2024-03-08 13h21.01.345886 +0100,
left,left,,,,,0,0,0,0,,,,,174.35551837499952,,,,,,,,,174.34717204098706,175.1394620409992,175.94091983299586,175.93211670799064,175.93214641598752,175.94091983299586,175.94091983299586,176.03079141600756,176.71481549998862,176.80790049998905,right,0.7676649579952937,0.006900000007590279,,,,,,,,,,,,,,,,,,,,,,,df,001,2024-03-08_13h20.46.758,random_dot,2023.2.3,None,2024-03-08 13h21.01.345886 +0100,
right,right,,,,,0,1,1,1,,,,,176.81474791598157,,,,,,,,,176.8090087499877,177.60595554098836,178.40684295800747,178.39834858299582,178.39837254100712,178.40684295800747,178.40684295800747,178.49725262500579,179.1645785830042,180.97258208299172,left,2.4692764159990475,None,,,,,,,,,,,,,,,,,,,,,,,df,001,2024-03-08_13h20.46.758,random_dot,2023.2.3,None,2024-03-08 13h21.01.345886 +0100,
left,left,,,,,1,0,2,0,,,,,180.98159958299948,,,,,,,,,180.97373549998156,181.0718963329855,181.87361808298738,181.8651780829823,181.86520520798513,181.87361808298738,181.87361808298738,181.96445691600093,182.61962304098415,182.69831074998365,right,0.7298329170153011,None,,,,,,,,,,,,,,,,,,,,,,,df,001,2024-03-08_13h20.46.758,random_dot,2023.2.3,None,2024-03-08 13h21.01.345886 +0100,
right,right,,,,,1,1,3,1,,,,,182.7059804580058,,,,,,,,,182.6991767080035,183.88860883298912,184.68027758298558,184.67182929100818,184.67185670798062,184.68027758298558,184.68027758298558,184.76379795800312,185.4312444999814,186.08237162500154,left,1.3149027499894146,None,,,,,,,,,,,,,,,,,,,,,,,df,001,2024-03-08_13h20.46.758,random_dot,2023.2.3,None,2024-03-08 13h21.01.345886 +0100,
left,left,,,,,2,0,4,0,,,,,186.09059750000597,,,,,,,,,186.08339341598912,186.43147995800246,187.22380320800585,187.2151030410023,187.21512412498123,187.22380320800585,187.22380320800585,187.31449625000823,187.9699507500045,188.415989540983,left,1.0916467499919236,None,,,,,,,,,,,,,,,,,,,,,,,df,001,2024-03-08_13h20.46.758,random_dot,2023.2.3,None,2024-03-08 13h21.01.345886 +0100,
right,right,,,,,2,1,5,1,,,,,188.42257583298488,,,,,,,,,188.41706320800586,189.61471404100303,190.40733508300036,190.3986227499845,190.39865191598074,190.40733508300036,190.40733508300036,190.48869066598127,191.15304199999082,193.40855470800307,left,2.909857958002249,0.0070386249863076955,,,,,,,,,,,,,,,,,,,,,,,df,001,2024-03-08_13h20.46.758,random_dot,2023.2.3,None,2024-03-08 13h21.01.345886 +0100,
right,right,,,,,3,0,6,1,,,,,193.43091062500025,,,,,,,,,193.4096050829976,193.75583408298553,194.5573489999806,194.54847183299717,194.54849791599554,194.5573489999806,194.5573489999806,194.63865704098134,195.30340058298316,195.7395039999974,right,1.0952780829975381,None,,,,,,,,,,,,,,,,,,,,,,,df,001,2024-03-08_13h20.46.758,random_dot,2023.2.3,None,2024-03-08 13h21.01.345886 +0100,
left,left,,,,,3,1,7,0,,,,,195.76415037500556,,,,,,,,,195.74053033298696,196.93898854099098,197.74038866598858,197.7318482499977,197.73187250000774,197.74038866598858,197.74038866598858,197.8310505829868,198.487152332993,198.8987461659999,left,1.0630587920022663,None,,,,,,,,,,,,,,,,,,,,,,,df,001,2024-03-08_13h20.46.758,random_dot,2023.2.3,None,2024-03-08 13h21.01.345886 +0100,
right,right,,,,,4,0,8,1,,,,,198.90749174999655,,,,,,,,,198.8997855829948,200.09781599999405,200.8908506250009,200.8820270409924,200.882056500006,200.8908506250009,200.8908506250009,200.97232387500117,201.6641955410014,201.83163095798227,left,0.8565322500071488,None,,,,,,,,,,,,,,,,,,,,,,,df,001,2024-03-08_13h20.46.758,random_dot,2023.2.3,None,2024-03-08 13h21.01.345886 +0100,
left,left,,,,,4,1,9,0,,,,,201.83734566599014,,,,,,,,,201.83204829099122,203.0229627499939,203.82305633299984,203.8146497909911,203.81467449999764,203.82305633299984,203.82305633299984,203.90550133300712,204.56934504100354,204.75590212500538,left,0.8443034999945667,None,,,,,,,,,,,,,,,,,,,,,,,df,001,2024-03-08_13h20.46.758,random_dot,2023.2.3,None,2024-03-08 13h21.01.345886 +0100,
left,left,,,,,5,0,10,0,,,,,204.7808708329976,,,,,,,,,204.75692849999177,205.95535466598812,206.75645791599527,206.74800925000454,206.74802941599046,206.75645791599527,206.75645791599527,206.8385209160042,207.50432745798025,207.90520437498344,right,1.0634047920175362,None,,,,,,,,,,,,,,,,,,,,,,,df,001,2024-03-08_13h20.46.758,random_dot,2023.2.3,None,2024-03-08 13h21.01.345886 +0100,
right,right,,,,,5,1,11,1,,,,,207.91482824998093,,,,,,,,,207.906253166002,208.0050845000078,208.79714970799978,208.78861033299472,208.78864070799318,208.79714970799978,208.79714970799978,208.88037441598135,209.5471439579851,210.82497704098932,right,1.9346385830140207,0.006831709004472941,,,,,,,,,,,,,,,,,,,,,,,df,001,2024-03-08_13h20.46.758,random_dot,2023.2.3,None,2024-03-08 13h21.01.345886 +0100,
right,right,,,,,6,0,12,1,,,,,210.8474390830088,,,,,,,,,210.82603883297998,212.02275958299288,212.82384641599492,212.81505983299576,212.81508899998153,212.82384641599492,212.82384641599492,212.9050461250008,213.5696070829872,213.75547191599617,right,0.8451846249809023,None,,,,,,,,,,,,,,,,,,,,,,,df,001,2024-03-08_13h20.46.758,random_dot,2023.2.3,None,2024-03-08 13h21.01.345886 +0100,
left,left,,,,,6,1,13,0,,,,,213.76445220800815,,,,,,,,,213.75650266598677,214.5552295410016,215.34738412499428,215.3386790000077,215.33870633298648,215.34738412499428,215.34738412499428,215.4384161659982,216.09786729098414,216.30490533300326,left,0.863238582998747,None,,,,,,,,,,,,,,,,,,,,,,,df,001,2024-03-08_13h20.46.758,random_dot,2023.2.3,None,2024-03-08 13h21.01.345886 +0100,
left,left,,,,,7,0,14,0,,,,,216.3144691659836,,,,,,,,,216.30594591598492,216.6556862909929,217.4569185829896,217.44842349999817,217.44844483298948,217.4569185829896,217.4569185829896,217.5477127500053,218.20284187499783,218.51540991599904,right,0.9631780839990824,None,,,,,,,,,,,,,,,,,,,,,,,df,001,2024-03-08_13h20.46.758,random_dot,2023.2.3,None,2024-03-08 13h21.01.345886 +0100,
right,right,,,,,7,1,15,1,,,,,218.5243166660075,,,,,,,,,218.51643720798893,218.86458983298508,219.6573204160086,219.64842549999594,219.64845712500392,219.6573204160086,219.6573204160086,219.738715665997,220.40313191598398,220.64910033298656,right,0.9090586660022382,None,,,,,,,,,,,,,,,,,,,,,,,df,001,2024-03-08_13h20.46.758,random_dot,2023.2.3,None,2024-03-08 13h21.01.345886 +0100,
left,left,,,,,8,0,16,0,,,,,220.6573388329998,,,,,,,,,220.6501284999831,221.84800212498521,222.64018991598277,222.63146987499204,222.6314949579828,222.64018991598277,222.64018991598277,222.7219704159943,223.38681491598254,223.63918916598777,left,0.9158207079744898,None,,,,,,,,,,,,,,,,,,,,,,,df,001,2024-03-08_13h20.46.758,random_dot,2023.2.3,None,2024-03-08 13h21.01.345886 +0100,
right,right,,,,,8,1,17,1,,,,,223.64745429100003,,,,,,,,,223.64022070798092,223.73907974999747,224.54001745799906,224.5317070829915,224.53173183300532,224.54001745799906,224.54001745799906,224.6213605410012,225.28713300000527,225.44051741599105,left,0.8107957089960109,0.004500790993915871,,,,,,,,,,,,,,,,,,,,,,,df,001,2024-03-08_13h20.46.758,random_dot,2023.2.3,None,2024-03-08 13h21.01.345886 +0100,
left,left,,,,,9,0,18,0,,,,,225.4468444160011,,,,,,,,,225.4413985410065,226.2386667910032,227.0401055830007,227.03162199998042,227.03164558298886,227.0401055830007,227.0401055830007,227.13090716599254,227.78574358299375,228.08159216598142,right,0.9466397080104798,None,,,,,,,,,,,,,,,,,,,,,,,df,001,2024-03-08_13h20.46.758,random_dot,2023.2.3,None,2024-03-08 13h21.01.345886 +0100,
right,right,,,,,9,1,19,1,,,,,228.08981954099727,,,,,,,,,228.08262637499138,228.42171712499112,229.22335462499177,229.214933249983,229.21495674998732,229.22335462499177,229.22335462499177,229.30492970798514,229.97051124999416,230.12203454098199,left,0.8124211670074146,None,,,,,,,,,,,,,,,,,,,,,,,df,001,2024-03-08_13h20.46.758,random_dot,2023.2.3,None,2024-03-08 13h21.01.345886 +0100,
right,right,,,,,10,0,20,1,,,,,230.13073591599823,,,,,,,,,230.12308116600616,230.47212983298232,231.27420483299647,231.2651691659994,231.26519854099024,231.27420483299647,231.27420483299647,231.35582129098475,232.04721033299575,232.77471262498875,left,1.4101122920110356,0.007315958006074652,,,,,,,,,,,,,,,,,,,,,,,df,001,2024-03-08_13h20.46.758,random_dot,2023.2.3,None,2024-03-08 13h21.01.345886 +0100,
left,left,,,,,10,1,21,0,,,,,232.79730562499026,,,,,,,,,232.77582304098178,233.9723755409941,234.7736123749928,234.76491174998228,234.76493612499326,234.7736123749928,234.7736123749928,234.86354341599508,235.519880790991,235.6408525829902,left,0.7681599579809699,0.005505958019057289,,,,,,,,,,,,,,,,,,,,,,,df,001,2024-03-08_13h20.46.758,random_dot,2023.2.3,None,2024-03-08 13h21.01.345886 +0100,
right,right,,,,,11,0,22,1,,,,,235.6476631659898,,,,,,,,,235.6419331659854,236.83865808299743,237.64016608300153,237.6315580829978,237.63158349998412,237.64016608300153,237.64016608300153,237.73020054100198,238.3866416249948,238.61456658298266,left,0.8751232910144608,None,,,,,,,,,,,,,,,,,,,,,,,df,001,2024-03-08_13h20.46.758,random_dot,2023.2.3,None,2024-03-08 13h21.01.345886 +0100,
left,left,,,,,11,1,23,0,,,,,238.6214062079962,,,,,,,,,238.61566241600667,238.95496549998643,239.7473581249942,239.73832620799658,239.73835537498235,239.7473581249942,239.7473581249942,239.8308595409908,240.4977811249846,240.6320154159912,left,0.7916697500040755,0.008405166998272762,,,,,,,,,,,,,,,,,,,,,,,df,001,2024-03-08_13h20.46.758,random_dot,2023.2.3,None,2024-03-08 13h21.01.345886 +0100,
right,right,,,,,12,0,24,1,,,,,240.64046550000785,,,,,,,,,240.6330408329959,240.73113129098783,241.52319499998703,241.51491900000838,241.51494341599755,241.52319499998703,241.52319499998703,241.61362491600448,242.27033691600082,242.30480308298138,left,0.6871731250139419,None,,,,,,,,,,,,,,,,,,,,,,,df,001,2024-03-08_13h20.46.758,random_dot,2023.2.3,None,2024-03-08 13h21.01.345886 +0100,
left,left,,,,,12,1,25,0,,,,,242.31417904098635,,,,,,,,,242.3056447909912,242.40489945799345,243.20707583299372,243.1982717079809,243.19830179098062,243.20707583299372,243.20707583299372,243.2972571249993,243.9530899579986,244.1548855410074,left,0.8522437079809606,None,,,,,,,,,,,,,,,,,,,,,,,df,001,2024-03-08_13h20.46.758,random_dot,2023.2.3,None,2024-03-08 13h21.01.345886 +0100,
right,right,,,,,13,0,26,1,,,,,244.16383145799045,,,,,,,,,244.1559129160014,244.95587691600667,245.7567338749941,245.7480865829857,245.74811033299193,245.7567338749941,245.7567338749941,245.84689433299354,246.50322808299097,247.17512983299093,right,1.318880332983099,0.008021957997698337,,,,,,,,,,,,,,,,,,,,,,,df,001,2024-03-08_13h20.46.758,random_dot,2023.2.3,None,2024-03-08 13h21.01.345886 +0100,
left,left,,,,,13,1,27,0,,,,,247.18323620798765,,,,,,,,,247.17616158298915,247.27230120799504,248.073860125005,248.0650908749958,248.06511683299323,248.073860125005,248.073860125005,248.16362041598768,248.81948429098702,249.72270191600546,left,1.553850041993428,None,,,,,,,,,,,,,,,,,,,,,,,df,001,2024-03-08_13h20.46.758,random_dot,2023.2.3,None,2024-03-08 13h21.01.345886 +0100,
right,right,,,,,14,0,28,1,,,,,249.74743899999885,,,,,,,,,249.72374920800212,250.07163945800858,250.8741925409995,250.8650218329858,250.86505245798617,250.8741925409995,250.8741925409995,250.95566858298844,251.64769091599737,251.94878195799538,right,0.9852879169920925,None,,,,,,,,,,,,,,,,,,,,,,,df,001,2024-03-08_13h20.46.758,random_dot,2023.2.3,None,2024-03-08 13h21.01.345886 +0100,
left,left,,,,,14,1,29,0,,,,,251.95768808299908,,,,,,,,,251.9498115000024,252.74767529100063,253.54019662499195,253.53168954100693,253.53171383298468,253.54019662499195,253.54019662499195,253.6306143749971,254.28630712500308,254.38199116598116,left,0.7424216249783058,None,,,,,,,,,,,,,,,,,,,,,,,df,001,2024-03-08_13h20.46.758,random_dot,2023.2.3,None,2024-03-08 13h21.01.345886 +0100,
right,right,,,,,15,0,30,1,,,,,254.3897212909942,,,,,,,,,254.38283799999044,255.18078949998016,255.97384508300456,255.96496287500486,255.96498900000006,255.97384508300456,255.97384508300456,256.05468454098445,256.71977945798426,256.9052602080046,left,0.8463655409868807,None,,,,,,,,,,,,,,,,,,,,,,,df,001,2024-03-08_13h20.46.758,random_dot,2023.2.3,None,2024-03-08 13h21.01.345886 +0100,
left,left,,,,,15,1,31,0,,,,,256.91421741599333,,,,,,,,,256.9063283749856,257.2561100409948,258.05664604099,258.0482510830043,258.04827520798426,258.05664604099,258.05664604099,258.1385628329881,258.80235920799896,258.9710570409952,right,0.8276023750077002,None,,,,,,,,,,,,,,,,,,,,,,,df,001,2024-03-08_13h20.46.758,random_dot,2023.2.3,None,2024-03-08 13h21.01.345886 +0100,
right,right,,,,,16,0,32,1,,,,,258.9803704159858,,,,,,,,,258.9720992500079,259.07215066600475,259.8730164160079,259.8647219160048,259.8647453750018,259.8730164160079,259.8730164160079,259.9552796659991,260.6193590000039,260.8315273330081,left,0.8662331250088755,None,,,,,,,,,,,,,,,,,,,,,,,df,001,2024-03-08_13h20.46.758,random_dot,2023.2.3,None,2024-03-08 13h21.01.345886 +0100,
left,left,,,,,16,1,33,0,,,,,260.8379385409935,,,,,,,,,260.83243399998173,262.03118958298,262.8232573749847,262.8147431249963,262.8147754999809,262.8232573749847,262.8232573749847,262.9139713750046,263.56935274999705,264.15530983300414,right,1.2354504999821074,None,,,,,,,,,,,,,,,,,,,,,,,df,001,2024-03-08_13h20.46.758,random_dot,2023.2.3,None,2024-03-08 13h21.01.345886 +0100,
left,left,,,,,17,0,34,0,,,,,264.1804233749863,,,,,,,,,264.1563468329841,264.25475454100524,265.05711695799255,265.04828462499427,265.04831316598575,265.05711695799255,265.05711695799255,265.13885291598854,,265.78147508300026,left,0.6352197079977486,None,,,,,,,,,,,,,,,,,,,,,,,df,001,2024-03-08_13h20.46.758,random_dot,2023.2.3,None,2024-03-08 13h21.01.345886 +0100,
right,right,,,,,17,1,35,1,,,,,265.78905804100214,,,,,,,,,265.78222045800067,266.1220099159982,266.913681874983,266.90489729098044,266.9049259159947,266.913681874983,266.913681874983,266.99643683299655,267.66416429099627,267.83882574999006,left,0.8399373749853112,None,,,,,,,,,,,,,,,,,,,,,,,df,001,2024-03-08_13h20.46.758,random_dot,2023.2.3,None,2024-03-08 13h21.01.345886 +0100,
left,left,,,,,18,0,36,0,,,,,267.846571165981,,,,,,,,,267.8397366660065,269.03821329100174,269.8300222909893,269.8215782500047,269.8216076660028,269.8300222909893,269.8300222909893,269.9130452910031,270.580941541004,270.606828457996,left,0.6855284170014784,0.0060020410164725035,,,,,,,,,,,,,,,,,,,,,,,df,001,2024-03-08_13h20.46.758,random_dot,2023.2.3,None,2024-03-08 13h21.01.345886 +0100,
right,right,,,,,18,1,37,1,,,,,270.61308841599384,,,,,,,,,270.6077113749925,271.8053714580019,272.6071430000011,272.59822979100863,272.5982557499956,272.6071430000011,272.6071430000011,272.6886401659867,273.3808657079935,273.5822907910042,right,0.8843768340011593,0.008102457999484614,,,,,,,,,,,,,,,,,,,,,,,df,001,2024-03-08_13h20.46.758,random_dot,2023.2.3,None,2024-03-08 13h21.01.345886 +0100,
left,left,,,,,19,0,38,0,,,,,273.59097579098307,,,,,,,,,273.58335524998256,273.6810675000015,274.47360641599516,274.464815290994,274.46484441598295,274.47360641599516,274.47360641599516,274.56395191600313,275.2202869580069,275.2402626659896,left,0.6673158329795115,0.005655832996126264,,,,,,,,,,,,,,,,,,,,,,,df,001,2024-03-08_13h20.46.758,random_dot,2023.2.3,None,2024-03-08 13h21.01.345886 +0100,
right,right,,,,,19,1,39,1,,,,,275.2463803330029,,,,,,,,,275.24113195799873,276.0387403749919,276.8402104580018,276.83142870798474,276.83145433300524,276.8402104580018,276.8402104580018,276.9300461660023,277.5866042909911,277.8410264159902,left,0.9009602080041077,0.005619542003842071,,,,,,,,,,,,,,,,,,,,,,,df,001,2024-03-08_13h20.46.758,random_dot,2023.2.3,None,2024-03-08 13h21.01.345886 +0100,
,,,,,,,,,,,,,,,,,,,,,,,,,,,,,,,,,,,,,,,,,,,,,,,277.8417185829894,277.8651408329897,277.8651408329897,288.94847329100594,space,11.074798124987865,None,,,,,df,001,2024-03-08_13h20.46.758,random_dot,2023.2.3,None,2024-03-08 13h21.01.345886 +0100,
left,left,,,,,,,,,0,0,0,0,288.96521487500286,,,,,,,,,288.95689766600844,289.2974778749922,290.09038920799503,290.08140087500215,290.0814289159898,290.09038920799503,290.09038920799503,290.18102704099147,,290.7388991659973,left,0.5524594580056146,None,,,,,,,,,,,,,,,,,,,,,,,df,001,2024-03-08_13h20.46.758,random_dot,2023.2.3,None,2024-03-08 13h21.01.345886 +0100,
right,right,,,,,,,,,0,1,1,1,290.74673908299883,,,,,,,,,290.7398755000031,290.83728808298474,291.63011924998136,291.6208640830009,291.6208877080062,291.63011924998136,291.63011924998136,291.71384145799675,,292.08834595800727,right,0.3708253749937285,None,,,,,,,,,,,,,,,,,,,,,,,df,001,2024-03-08_13h20.46.758,random_dot,2023.2.3,None,2024-03-08 13h21.01.345886 +0100,
right,right,,,,,,,,,1,0,2,1,292.09710137499496,,,,,,,,,292.0890829580021,293.2882318329939,294.08971812500386,294.08119004100445,294.08121404098347,294.08971812500386,294.08971812500386,294.1712912909861,294.8356071249873,295.0653004999913,left,0.8903033750248142,None,,,,,,,,,,,,,,,,,,,,,,,df,001,2024-03-08_13h20.46.758,random_dot,2023.2.3,None,2024-03-08 13h21.01.345886 +0100,
left,left,,,,,,,,,1,1,3,0,295.07341670800815,,,,,,,,,295.0663320409949,295.86394183299853,296.65647416599677,296.64793775000726,296.6479599160084,296.65647416599677,296.65647416599677,296.7471796250029,,297.2885525409947,left,0.5372163749998435,None,,,,,,,,,,,,,,,,,,,,,,,df,001,2024-03-08_13h20.46.758,random_dot,2023.2.3,None,2024-03-08 13h21.01.345886 +0100,
left,left,,,,,,,,,2,0,4,0,297.2967195829842,,,,,,,,,297.2892918330035,298.08882183299283,298.8898777499853,298.88124645798234,298.8812712079962,298.8898777499853,298.8898777499853,298.98045487498166,,299.47198704100447,left,0.4897069580038078,None,,,,,,,,,,,,,,,,,,,,,,,df,001,2024-03-08_13h20.46.758,random_dot,2023.2.3,None,2024-03-08 13h21.01.345886 +0100,
right,right,,,,,,,,,2,1,5,1,299.4806058329996,,,,,,,,,299.4727280829975,300.6720907079871,301.4729603329906,301.46443279099185,301.4644572499965,301.4729603329906,301.4729603329906,301.5632767909847,,302.1384125830082,right,0.569381292007165,None,,,,,,,,,,,,,,,,,,,,,,,df,001,2024-03-08_13h20.46.758,random_dot,2023.2.3,None,2024-03-08 13h21.01.345886 +0100,
right,right,,,,,,,,,3,0,6,1,302.1472469159926,,,,,,,,,302.1391512499831,302.4887705000001,303.28890304098604,303.2803445409809,303.28036795798107,303.28890304098604,303.28890304098604,303.37113016599324,,303.92112254098174,right,0.5445574999903329,None,,,,,,,,,,,,,,,,,,,,,,,df,001,2024-03-08_13h20.46.758,random_dot,2023.2.3,None,2024-03-08 13h21.01.345886 +0100,
left,left,,,,,,,,,3,1,7,0,303.9300345829979,,,,,,,,,303.92186112498166,305.1212846660055,305.9233590000076,305.91463491600007,305.91466508299345,305.9233590000076,305.9233590000076,306.0131797909853,,306.447837832995,left,0.4315723329782486,None,,,,,,,,,,,,,,,,,,,,,,,df,001,2024-03-08_13h20.46.758,random_dot,2023.2.3,None,2024-03-08 13h21.01.345886 +0100,
left,left,,,,,,,,,4,0,8,0,306.45491933298763,,,,,,,,,306.4485875410028,306.5372598749818,307.3299302079831,307.32114245800767,307.32116637498257,307.3299302079831,307.3299302079831,307.4137009999831,,308.01484374998836,left,0.591687334002927,0.008289124991279095,,,,,,,,,,,,,,,,,,,,,,,df,001,2024-03-08_13h20.46.758,random_dot,2023.2.3,None,2024-03-08 13h21.01.345886 +0100,
right,right,,,,,,,,,4,1,9,1,308.02047920800396,,,,,,,,,308.0156141659827,308.80485354099073,309.59654616599437,309.58784474999993,309.58786633299314,309.59654616599437,309.59654616599437,309.6798870409839,310.3473549159826,310.37106033298187,left,0.686326791997999,None,,,,,,,,,,,,,,,,,,,,,,,df,001,2024-03-08_13h20.46.758,random_dot,2023.2.3,None,2024-03-08 13h21.01.345886 +0100,
left,left,,,,,,,,,5,0,10,0,310.3799033749965,,,,,,,,,310.3719182079949,310.7225688750041,311.5242257079808,311.51468320799177,311.514714541001,311.5242257079808,311.5242257079808,311.6043780829932,,312.24072524998337,left,0.6263761250011157,0.006025832990417257,,,,,,,,,,,,,,,,,,,,,,,df,001,2024-03-08_13h20.46.758,random_dot,2023.2.3,None,2024-03-08 13h21.01.345886 +0100,
right,right,,,,,,,,,5,1,11,1,312.246617124998,,,,,,,,,312.24150491598994,313.4384161659982,314.22996370799956,314.22143770797993,314.2214704999933,314.22996370799956,314.22996370799956,314.3129420829937,,314.85458783298964,right,0.5401905000035185,None,,,,,,,,,,,,,,,,,,,,,,,df,001,2024-03-08_13h20.46.758,random_dot,2023.2.3,None,2024-03-08 13h21.01.345886 +0100,
left,left,,,,,,,,,6,0,12,0,314.8632565829903,,,,,,,,,314.8553277500032,314.9536955409858,315.7461196660006,315.73768766599824,315.7377161250042,315.7461196660006,315.7461196660006,315.83046041600755,316.4973218749801,316.51473708299454,left,0.6787608329905197,None,,,,,,,,,,,,,,,,,,,,,,,df,001,2024-03-08_13h20.46.758,random_dot,2023.2.3,None,2024-03-08 13h21.01.345886 +0100,
right,right,,,,,,,,,6,1,13,1,316.5227939999895,,,,,,,,,316.51558741598274,316.6139172909898,317.40604095798335,317.3976379579981,317.3976616660075,317.40604095798335,317.40604095798335,317.4878005409846,318.1531524579914,318.15400679098093,left,0.6614652919815853,None,,,,,,,,,,,,,,,,,,,,,,,df,001,2024-03-08_13h20.46.758,random_dot,2023.2.3,None,2024-03-08 13h21.01.345886 +0100,
right,right,,,,,,,,,7,0,14,1,318.1637613750063,,,,,,,,,318.1547355829971,318.94704974998604,319.7394186659949,319.73053949998575,319.73056412499864,319.7394186659949,319.7394186659949,319.8204667499813,,320.2409095829935,left,0.4112607919960283,0.004670916008763015,,,,,,,,,,,,,,,,,,,,,,,df,001,2024-03-08_13h20.46.758,random_dot,2023.2.3,None,2024-03-08 13h21.01.345886 +0100,
left,left,,,,,,,,,7,1,15,0,320.2471755000006,,,,,,,,,320.241776165989,320.58760179099045,321.3803135409835,321.37051999999676,321.37054466598784,321.3803135409835,321.3803135409835,321.46349808300147,,321.9371024580032,left,0.46950037498027086,None,,,,,,,,,,,,,,,,,,,,,,,df,001,2024-03-08_13h20.46.758,random_dot,2023.2.3,None,2024-03-08 13h21.01.345886 +0100,
left,left,,,,,,,,,8,0,16,0,321.9463887909951,,,,,,,,,321.93754312500823,322.2803725829872,323.0726184579835,323.0637938329892,323.06381745799445,323.0726184579835,323.0726184579835,323.1540634580015,,323.68833299999824,left,0.5300542079785373,None,,,,,,,,,,,,,,,,,,,,,,,df,001,2024-03-08_13h20.46.758,random_dot,2023.2.3,None,2024-03-08 13h21.01.345886 +0100,
right,right,,,,,,,,,8,1,17,1,323.6969161659945,,,,,,,,,323.68921087498893,324.03861862499616,324.8395885829814,324.83105991600314,324.83108387500397,324.8395885829814,324.8395885829814,324.9294069579919,,325.4544257079833,left,0.5230149170092773,None,,,,,,,,,,,,,,,,,,,,,,,df,001,2024-03-08_13h20.46.758,random_dot,2023.2.3,None,2024-03-08 13h21.01.345886 +0100,
left,left,,,,,,,,,9,0,18,0,325.46358633300406,,,,,,,,,325.4551614999946,325.8058807500056,326.6060868749919,326.59771462500794,326.5977357499942,326.6060868749919,326.6060868749919,326.69651658300427,,327.288471915992,left,0.5873754160129465,None,,,,,,,,,,,,,,,,,,,,,,,df,001,2024-03-08_13h20.46.758,random_dot,2023.2.3,None,2024-03-08 13h21.01.345886 +0100,
right,right,,,,,,,,,9,1,19,1,327.2964773749991,,,,,,,,,327.2892128749809,327.63782391598215,328.4399279159843,328.4312352499983,328.4312660410069,328.4399279159843,328.4399279159843,328.5296231659886,,329.00651995799853,left,0.46763845800887793,0.007255167001858354,,,,,,,,,,,,,,,,,,,,,,,df,001,2024-03-08_13h20.46.758,random_dot,2023.2.3,None,2024-03-08 13h21.01.345886 +0100,
right,right,,,,,,,,,10,0,20,1,329.0126370409853,,,,,,,,,329.007285041007,330.2051204580057,331.00606937499833,330.99764604098164,330.9976696250087,331.00606937499833,331.00606937499833,331.09701045800466,331.7530058749835,332.0478558749892,right,0.9475621659948956,None,,,,,,,,,,,,,,,,,,,,,,,df,001,2024-03-08_13h20.46.758,random_dot,2023.2.3,None,2024-03-08 13h21.01.345886 +0100,
left,left,,,,,,,,,10,1,21,0,332.0559225830075,,,,,,,,,332.0488783750043,332.1469025409897,332.9393024579913,332.93099216598785,332.93101337499684,332.9393024579913,332.9393024579913,333.0304197910009,,333.6381777499919,left,0.6066006250039209,None,,,,,,,,,,,,,,,,,,,,,,,df,001,2024-03-08_13h20.46.758,random_dot,2023.2.3,None,2024-03-08 13h21.01.345886 +0100,
left,left,,,,,,,,,11,0,22,0,333.6468942500069,,,,,,,,,333.6389110829914,334.4377852079924,335.24007854098454,335.23127304099035,335.2312987909827,335.24007854098454,335.24007854098454,335.3298948750016,,335.9136229160067,left,0.5787060420261696,None,,,,,,,,,,,,,,,,,,,,,,,df,001,2024-03-08_13h20.46.758,random_dot,2023.2.3,None,2024-03-08 13h21.01.345886 +0100,
right,right,,,,,,,,,11,1,23,1,335.92080837499816,,,,,,,,,335.91435816598823,336.0036477499816,336.7969045409991,336.787022250006,336.78705195800285,336.7969045409991,336.7969045409991,336.8796009999933,,337.49718991600093,left,0.6133208749815822,None,,,,,,,,,,,,,,,,,,,,,,,df,001,2024-03-08_13h20.46.758,random_dot,2023.2.3,None,2024-03-08 13h21.01.345886 +0100,
left,left,,,,,,,,,12,0,24,0,337.50437774998136,,,,,,,,,337.4980439579813,337.58708562498214,338.3797820409818,338.3712330409908,338.37126124999486,338.3797820409818,338.3797820409818,338.4635845409939,,339.07109037498594,left,0.6043324579950422,None,,,,,,,,,,,,,,,,,,,,,,,df,001,2024-03-08_13h20.46.758,random_dot,2023.2.3,None,2024-03-08 13h21.01.345886 +0100,
right,right,,,,,,,,,12,1,25,1,339.0796869999904,,,,,,,,,339.0718270409852,339.8715847499843,340.67357579100644,340.6644024999987,340.6644267909869,340.67357579100644,340.67357579100644,340.7636703749886,,341.3143774579803,right,0.5439870419795625,None,,,,,,,,,,,,,,,,,,,,,,,df,001,2024-03-08_13h20.46.758,random_dot,2023.2.3,None,2024-03-08 13h21.01.345886 +0100,
left,left,,,,,,,,,13,0,26,0,341.32180987499305,,,,,,,,,341.31511900000623,342.50493783300044,343.30620925000403,343.2976408749819,343.2976644579903,343.30620925000403,343.30620925000403,343.39691449998645,,343.9906704580062,right,0.5842649170081131,0.007207207992905751,,,,,,,,,,,,,,,,,,,,,,,df,001,2024-03-08_13h20.46.758,random_dot,2023.2.3,None,2024-03-08 13h21.01.345886 +0100,
right,right,,,,,,,,,13,1,27,1,343.99674883298576,,,,,,,,,343.99143670799094,345.1875242909882,345.99013895800454,345.98124395799823,345.9812731659913,345.99013895800454,345.99013895800454,346.0891929579957,,346.6137802909943,left,0.5161547920142766,None,,,,,,,,,,,,,,,,,,,,,,,df,001,2024-03-08_13h20.46.758,random_dot,2023.2.3,None,2024-03-08 13h21.01.345886 +0100,
left,left,,,,,,,,,14,0,28,0,346.61975341598736,,,,,,,,,346.61456704098964,346.95531870800187,347.7565118329949,347.7475892500079,347.747612999985,347.7565118329949,347.7565118329949,347.8381702080078,348.5028376659902,348.68755341600627,right,0.8466768329963088,None,,,,,,,,,,,,,,,,,,,,,,,df,001,2024-03-08_13h20.46.758,random_dot,2023.2.3,None,2024-03-08 13h21.01.345886 +0100,
right,right,,,,,,,,,14,1,29,1,348.6968352079857,,,,,,,,,348.68840441599605,349.03773108299356,349.82942287498736,349.820826124982,349.82085508300224,349.82942287498736,349.82942287498736,349.9134710409853,350.5804112080077,350.66468462499324,right,0.7471470840100665,None,,,,,,,,,,,,,,,,,,,,,,,df,001,2024-03-08_13h20.46.758,random_dot,2023.2.3,None,2024-03-08 13h21.01.345886 +0100,
right,right,,,,,,,,,15,0,30,1,350.67229183300515,,,,,,,,,350.6655372910027,351.46373654098716,352.2559629580064,352.24748812499456,352.2475109999941,352.2559629580064,352.2559629580064,352.3463367499935,,352.780564457993,left,0.42643608298385516,None,,,,,,,,,,,,,,,,,,,,,,,df,001,2024-03-08_13h20.46.758,random_dot,2023.2.3,None,2024-03-08 13h21.01.345886 +0100,
left,left,,,,,,,,,15,1,31,0,352.7883653329918,,,,,,,,,352.78141779100406,353.1218898750085,353.92242991598323,353.91408345798845,353.9141069579928,353.92242991598323,353.92242991598323,354.004338416009,354.6692558749928,354.6873882910004,right,0.679416459024651,None,,,,,,,,,,,,,,,,,,,,,,,df,001,2024-03-08_13h20.46.758,random_dot,2023.2.3,None,2024-03-08 13h21.01.345886 +0100,
left,left,,,,,,,,,16,0,32,0,354.6967783329892,,,,,,,,,354.688229374995,355.88793054100825,356.6890627499961,356.68071012498694,356.6807337909995,356.6890627499961,356.6890627499961,356.7712683749851,,357.10503333300585,left,0.32883741601835936,None,,,,,,,,,,,,,,,,,,,,,,,df,001,2024-03-08_13h20.46.758,random_dot,2023.2.3,None,2024-03-08 13h21.01.345886 +0100,
right,right,,,,,,,,,16,1,33,1,357.11244508298114,,,,,,,,,357.1057742910052,357.4550728329923,358.2564606659871,358.24747045800905,358.24749979100307,358.2564606659871,358.2564606659871,358.3469172079931,,358.9142091659887,left,0.5603680410131346,None,,,,,,,,,,,,,,,,,,,,,,,df,001,2024-03-08_13h20.46.758,random_dot,2023.2.3,None,2024-03-08 13h21.01.345886 +0100,
left,left,,,,,,,,,17,0,34,0,358.9226665830065,,,,,,,,,358.9150645000045,359.71340541599784,360.50552862498444,360.4968778330076,360.496898915997,360.50552862498444,360.50552862498444,360.5878848749853,361.2526232499804,361.3311246660014,left,0.7370084580034018,None,,,,,,,,,,,,,,,,,,,,,,,df,001,2024-03-08_13h20.46.758,random_dot,2023.2.3,None,2024-03-08 13h21.01.345886 +0100,
right,right,,,,,,,,,17,1,35,1,361.33902187499916,,,,,,,,,361.33198587500374,361.43039679099456,362.2225656659866,362.21365624998,362.2136846659996,362.2225656659866,362.2225656659866,362.3042290000012,,362.9469894999929,right,0.635981166997226,None,,,,,,,,,,,,,,,,,,,,,,,df,001,2024-03-08_13h20.46.758,random_dot,2023.2.3,None,2024-03-08 13h21.01.345886 +0100,
right,right,,,,,,,,,18,0,36,1,362.95467416598694,,,,,,,,,362.9478385830007,363.03665345799527,363.8300020000024,363.8209381659981,363.82096829099464,363.8300020000024,363.8300020000024,363.91253204099485,364.5802759999933,364.5813737910066,left,0.6596422079892363,0.008304374990984797,,,,,,,,,,,,,,,,,,,,,,,df,001,2024-03-08_13h20.46.758,random_dot,2023.2.3,None,2024-03-08 13h21.01.345886 +0100,
left,left,,,,,,,,,18,1,37,0,364.5885858749971,,,,,,,,,364.5821108749951,365.38039249999565,366.17288358299993,366.1641140829888,366.16413758299313,366.17288358299993,366.17288358299993,366.26268474999233,366.9192923329829,366.93747216599877,left,0.6702289159875363,None,,,,,,,,,,,,,,,,,,,,,,,df,001,2024-03-08_13h20.46.758,random_dot,2023.2.3,None,2024-03-08 13h21.01.345886 +0100,
right,right,,,,,,,,,19,0,38,1,366.9460969159845,,,,,,,,,366.9382171659963,367.2883239160001,368.08961704099784,368.0808302910009,368.08085724999546,368.08961704099784,368.08961704099784,368.17998029099545,,368.7545752910082,right,0.5689543750195298,None,,,,,,,,,,,,,,,,,,,,,,,df,001,2024-03-08_13h20.46.758,random_dot,2023.2.3,None,2024-03-08 13h21.01.345886 +0100,
left,left,,,,,,,,,19,1,39,0,368.7634414579952,,,,,,,,,368.7553087499982,369.953985250002,370.74674149998464,370.7369529159914,370.73697712499416,370.74674149998464,370.74674149998464,370.8299995409907,,371.2969301659905,left,0.4621763750037644,None,,,,,,,,,,,,,,,,,,,,,,,df,001,2024-03-08_13h20.46.758,random_dot,2023.2.3,None,2024-03-08 13h21.01.345886 +0100,
,,,,,,,,,,,,,,,,,,,,,,,,,,,,,,,,,,,,,,,,,,,,,,,,,,,,,,371.29741429098067,371.3055847499927,376.3021447499923,376.2974938330008,,,,,,,,
