direction,corrAns,practice_run_loop.thisRepN,practice_run_loop.thisTrialN,practice_run_loop.thisN,practice_run_loop.thisIndex,first_run_loop.thisRepN,first_run_loop.thisTrialN,first_run_loop.thisN,first_run_loop.thisIndex,second_run_loop.thisRepN,second_run_loop.thisTrialN,second_run_loop.thisN,second_run_loop.thisIndex,thisRow.t,notes,instruction.started,textInstr.started,respInstr.started,instruction.stopped,respInstr.keys,respInstr.rt,respInstr.duration,ITI.started,fixcross.started,fixcross.stopped,ITI.stopped,dots.started,backgroundDots.started,stimulusDots.started,respDots.started,dots.stopped,respDots.keys,respDots.rt,respDots.duration,feedback.started,textFeedback.started,textFeedback.stopped,feedback.stopped,instruction_1.started,textSpeedInst.started,respSpeedInstr.started,instruction_1.stopped,respSpeedInstr.keys,respSpeedInstr.rt,respSpeedInstr.duration,backgroundDots.stopped,stimulusDots.stopped,instruction_2.started,textAccuracyInstr.started,respAccuracyInstr.started,instruction_2.stopped,respAccuracyInstr.keys,respAccuracyInstr.rt,respAccuracyInstr.duration,participant,session,date,expName,psychopyVersion,frameRate,expStart,
,,,,,,,,,,,,,,,,0.041557500007911585,0.061250300001120195,0.061250300001120195,10.722263500007102,space,10.65867080001044,None,,,,,,,,,,,,,,,,,,,,,,,,,,,,,,,,,sub-025860,001,2024-03-07_12h50.36.683,random_dot,2023.2.3,59.92042567740819,2024-03-07 12h50.41.780278 +0100,
right,right,0,0,0,1,,,,,,,,,10.738292699999874,,,,,,,,,10.726684199995361,10.838397800005623,11.637512100001913,11.62115829999675,11.621169799997006,11.637512100001913,11.637512100001913,11.722451599998749,12.323426500006462,left,0.5892824000038672,None,12.323780799997621,12.337997700000415,12.840162299995427,12.82371470000362,,,,,,,,,,,,,,,,,sub-025860,001,2024-03-07_12h50.36.683,random_dot,2023.2.3,59.92042567740819,2024-03-07 12h50.41.780278 +0100,
left,left,0,1,1,0,,,,,,,,,12.840162299995427,,,,,,,,,12.82392670000263,12.92342859999917,13.724096699996153,13.706166400006623,13.706177400003071,13.724096699996153,13.724096699996153,13.807550900004571,14.642270299998927,left,0.8321252000023378,None,14.642533499994897,14.65653750000638,15.158632000006037,15.142306499998085,,,,,,,,,,,,,,,,,sub-025860,001,2024-03-07_12h50.36.683,random_dot,2023.2.3,59.92042567740819,2024-03-07 12h50.41.780278 +0100,
right,right,1,0,2,1,,,,,,,,,15.158632000006037,,,,,,,,,15.1425040000031,15.94263819999469,16.74176730000181,16.725302100006957,16.725313000002643,16.74176730000181,16.74176730000181,16.825091499995324,17.55968639999628,right,0.7264951999968616,None,17.55990560000646,17.577246300003026,,18.061140399993747,,,,,,,,,,,,,,,,,sub-025860,001,2024-03-07_12h50.36.683,random_dot,2023.2.3,59.92042567740819,2024-03-07 12h50.41.780278 +0100,
left,left,1,1,3,0,,,,,,,,,18.077709799996228,,,,,,,,,18.06134810000367,18.860083799998392,19.660790499998257,19.645968199998606,19.645979799999623,19.660790499998257,19.660790499998257,19.745762000005925,20.1617230999982,left,0.40571200000704266,None,20.16194710000127,20.17945929999405,,20.663402599995607,,,,,,,,,,,,,,,,,sub-025860,001,2024-03-07_12h50.36.683,random_dot,2023.2.3,59.92042567740819,2024-03-07 12h50.41.780278 +0100,
left,left,2,0,4,0,,,,,,,,,20.67990600000485,,,,,,,,,20.6635998999991,21.013483899994753,21.814190300006885,21.797783999994863,21.79779409999901,21.814190300006885,21.814190300006885,21.897658100002445,22.398506800003815,left,0.4859511999966344,None,22.398725399994873,22.41465099999914,22.915063399996143,22.898799600006896,,,,,,,,,,,,,,,,,sub-025860,001,2024-03-07_12h50.36.683,random_dot,2023.2.3,59.92042567740819,2024-03-07 12h50.41.780278 +0100,
right,right,2,1,5,1,,,,,,,,,22.915063399996143,,,,,,,,,22.898999800003367,24.099462900005165,24.90008239999588,24.88375090000045,24.88376280000375,24.90008239999588,24.90008239999588,24.983428799998364,25.41773960000137,right,0.42469279999204446,None,25.417967800007318,25.43390740000177,25.934321399996406,25.91777820000425,,,,,,,,,,,,,,,,,sub-025860,001,2024-03-07_12h50.36.683,random_dot,2023.2.3,59.92042567740819,2024-03-07 12h50.41.780278 +0100,
left,left,3,0,6,0,,,,,,,,,25.934321399996406,,,,,,,,,25.917981799997506,26.267936500007636,27.066945300000953,27.050579100003233,27.05058999999892,27.066945300000953,27.066945300000953,27.151915900001768,27.818012100004125,left,0.6561285000061616,None,27.8182541999995,27.834188000007998,28.334715499993763,28.318155800006934,,,,,,,,,,,,,,,,,sub-025860,001,2024-03-07_12h50.36.683,random_dot,2023.2.3,59.92042567740819,2024-03-07 12h50.41.780278 +0100,
right,right,3,1,7,1,,,,,,,,,28.334715499993763,,,,,,,,,28.31836380000459,28.66822609999508,29.468842899994343,29.45410640000773,29.45412199999555,29.468842899994343,29.468842899994343,29.55393369999365,30.03646590000426,left,0.47830180000164546,None,30.03668900000048,30.052624999996624,30.555076100004953,30.536916900004144,,,,,,,,,,,,,,,,,sub-025860,001,2024-03-07_12h50.36.683,random_dot,2023.2.3,59.92042567740819,2024-03-07 12h50.41.780278 +0100,
right,right,4,0,8,1,,,,,,,,,30.555076100004953,,,,,,,,,30.53718719999597,30.638233699995908,31.438910099997884,31.422414800006663,31.42242640000768,31.438910099997884,31.438910099997884,31.522258400000283,32.02153339999495,right,0.4852901000122074,None,32.02176230000623,32.03939890000038,,32.52310120000038,,,,,,,,,,,,,,,,,sub-025860,001,2024-03-07_12h50.36.683,random_dot,2023.2.3,59.92042567740819,2024-03-07 12h50.41.780278 +0100,
left,left,4,1,9,0,,,,,,,,,32.53984329999366,,,,,,,,,32.52331129999948,32.87339249999786,33.67237020000175,33.65789469999436,33.65790619999461,33.67237020000175,33.67237020000175,33.772518700003275,34.473667600002955,left,0.6913204999873415,None,34.47388439999486,34.49132460000692,,34.975122600008035,,,,,,,,,,,,,,,,,sub-025860,001,2024-03-07_12h50.36.683,random_dot,2023.2.3,59.92042567740819,2024-03-07 12h50.41.780278 +0100,
right,right,5,0,10,1,,,,,,,,,34.99172639999597,,,,,,,,,34.9753245000029,35.775726699997904,36.576375300006475,36.56010139999853,36.56011550000403,36.576375300006475,36.576375300006475,36.65990410000086,37.14412050000101,right,0.4686756000010064,None,37.1443622999941,37.16025179999997,,37.659245500006364,,,,,,,,,,,,,,,,,sub-025860,001,2024-03-07_12h50.36.683,random_dot,2023.2.3,59.92042567740819,2024-03-07 12h50.41.780278 +0100,
left,left,5,1,11,0,,,,,,,,,37.67730219999794,,,,,,,,,37.65946239999903,38.844947599995066,39.64396770000167,39.62932599999476,39.62933749999502,39.64396770000167,39.64396770000167,39.72727499999746,40.22831380000571,left,0.49715809999906924,None,40.22853880000184,40.24606869999843,,40.74657640000805,,,,,,,,,,,,,,,,,sub-025860,001,2024-03-07_12h50.36.683,random_dot,2023.2.3,59.92042567740819,2024-03-07 12h50.41.780278 +0100,
right,right,6,0,12,1,,,,,,,,,40.761744999996154,,,,,,,,,40.74678620000486,41.08008980000159,41.88081329999841,41.86445449999883,41.86446559999604,41.88081329999841,41.88081329999841,41.96346430000267,42.56348959999741,right,0.5960892000002787,None,42.56370810000226,42.58132789999945,,43.065261399999144,,,,,,,,,,,,,,,,,sub-025860,001,2024-03-07_12h50.36.683,random_dot,2023.2.3,59.92042567740819,2024-03-07 12h50.41.780278 +0100,
left,left,6,1,13,0,,,,,,,,,43.081828499998664,,,,,,,,,43.065470500005176,43.16529509999964,43.98254339999403,43.96510679999483,43.96511889999965,43.98254339999403,43.98254339999403,44.064345299993875,44.63375680000172,left,0.560030699998606,None,44.633974399999715,44.649775800004136,45.14844469999662,45.13373030000366,,,,,,,,,,,,,,,,,sub-025860,001,2024-03-07_12h50.36.683,random_dot,2023.2.3,59.92042567740819,2024-03-07 12h50.41.780278 +0100,
right,right,7,0,14,1,,,,,,,,,45.14844469999662,,,,,,,,,45.133923900008085,45.48373770000762,46.284428600003594,46.268066200005705,46.2680776000052,46.284428600003594,46.284428600003594,46.36788190000516,46.81724669999676,right,0.4407883999956539,None,46.81749950000085,46.83334399999876,,47.31876870000269,,,,,,,,,,,,,,,,,sub-025860,001,2024-03-07_12h50.36.683,random_dot,2023.2.3,59.92042567740819,2024-03-07 12h50.41.780278 +0100,
left,left,7,1,15,0,,,,,,,,,47.33537950000027,,,,,,,,,47.31899010000052,48.51969739999913,49.32031900000584,49.30235060000268,49.302361800000654,49.32031900000584,49.32031900000584,49.40212949999841,49.88606920000166,left,0.47746329999063164,None,49.88627630000701,49.90415679999569,,50.38788900000509,,,,,,,,,,,,,,,,,sub-025860,001,2024-03-07_12h50.36.683,random_dot,2023.2.3,59.92042567740819,2024-03-07 12h50.41.780278 +0100,
right,right,8,0,16,1,,,,,,,,,50.40293029999884,,,,,,,,,50.3881010000041,51.188511300002574,51.98929159999534,51.97292070000549,51.9729318000027,51.98929159999534,51.98929159999534,52.07269879999512,52.606893699994544,right,0.5268187000037869,None,52.607107999996515,52.62306690000696,53.123506799995084,53.107126500006416,,,,,,,,,,,,,,,,,sub-025860,001,2024-03-07_12h50.36.683,random_dot,2023.2.3,59.92042567740819,2024-03-07 12h50.41.780278 +0100,
left,left,8,1,17,0,,,,,,,,,53.123506799995084,,,,,,,,,53.107320700000855,53.90753500000574,54.7081765000039,54.69173619999492,54.691747599994414,54.7081765000039,54.7081765000039,54.79158180000377,55.425860200004536,left,0.6249023999989731,None,55.42608750000363,55.44206889999623,55.94257539999671,55.926118899995345,,,,,,,,,,,,,,,,,sub-025860,001,2024-03-07_12h50.36.683,random_dot,2023.2.3,59.92042567740819,2024-03-07 12h50.41.780278 +0100,
left,left,9,0,18,0,,,,,,,,,55.94257539999671,,,,,,,,,55.92632650000451,56.276091399995494,57.07676700000593,57.06046609999612,57.06047720000788,57.07676700000593,57.07676700000593,57.1603102000081,57.859602900003665,right,0.6876055999891832,None,57.859820900004706,57.877411499997834,,58.37797230000433,,,,,,,,,,,,,,,,,sub-025860,001,2024-03-07_12h50.36.683,random_dot,2023.2.3,59.92042567740819,2024-03-07 12h50.41.780278 +0100,
right,right,9,1,19,1,,,,,,,,,58.3928811000078,,,,,,,,,58.37818410000182,58.711435899997014,59.51209089999611,59.494072899993625,59.49408410000615,59.51209089999611,59.51209089999611,59.59384729999874,60.17832940000517,right,0.5738393000065116,None,60.17854959999386,60.194791000001715,,60.67979510000441,,,,,,,,,,,,,,,,,sub-025860,001,2024-03-07_12h50.36.683,random_dot,2023.2.3,59.92042567740819,2024-03-07 12h50.41.780278 +0100,
,,,,,,,,,,,,,,,,,,,,,,,,,,,,,,,,,,,,,,,60.67983199999435,60.694616099994164,60.694616099994164,67.30241150000074,space,6.593387000000803,None,,,,,,,,,,sub-025860,001,2024-03-07_12h50.36.683,random_dot,2023.2.3,59.92042567740819,2024-03-07 12h50.41.780278 +0100,
right,right,,,,,0,0,0,1,,,,,67.31866499999887,,,,,,,,,67.30623410000408,67.40199700000812,68.21930240000074,68.20291649999854,68.20292690000497,68.21930240000074,68.21930240000074,68.31788190000225,68.7870746999979,right,0.4664014000009047,None,,,,,,,,,,,,,,,,,,,,,sub-025860,001,2024-03-07_12h50.36.683,random_dot,2023.2.3,59.92042567740819,2024-03-07 12h50.41.780278 +0100,
left,left,,,,,0,1,1,0,,,,,68.80319210000744,,,,,,,,,68.78762220000499,69.58555479999632,70.38777790000313,70.37155199999688,70.37156349999714,70.38777790000313,70.38777790000313,70.46961260000535,70.92044210000313,left,0.44199249999655876,None,,,,,,,,,,,,,,,,,,,,,sub-025860,001,2024-03-07_12h50.36.683,random_dot,2023.2.3,59.92042567740819,2024-03-07 12h50.41.780278 +0100,
right,right,,,,,1,0,2,1,,,,,70.9384097000002,,,,,,,,,70.92084069999692,71.02168390000588,71.82585180000751,71.80466979999619,71.8046805000049,71.82585180000751,71.82585180000751,71.92027889999736,72.68830710000475,right,0.7605846999940695,None,,,,,,,,,,,,,,,,,,,,,sub-025860,001,2024-03-07_12h50.36.683,random_dot,2023.2.3,59.92042567740819,2024-03-07 12h50.41.780278 +0100,
left,left,,,,,1,1,3,0,,,,,72.70461060000525,,,,,,,,,72.68875830000616,72.78789890000189,73.58817859999544,73.57232200000726,73.57233340000676,73.58817859999544,73.58817859999544,73.67202420000103,74.4560574000061,left,0.7682066999987001,None,,,,,,,,,,,,,,,,,,,,,sub-025860,001,2024-03-07_12h50.36.683,random_dot,2023.2.3,59.92042567740819,2024-03-07 12h50.41.780278 +0100,
right,right,,,,,2,0,4,1,,,,,74.47356460000447,,,,,,,,,74.45648579999397,74.55560839999816,75.35659720000695,75.34046540000418,75.34047609999834,75.35659720000695,75.35659720000695,75.44104639999568,75.82459139999992,right,0.38248440000461414,None,,,,,,,,,,,,,,,,,,,,,sub-025860,001,2024-03-07_12h50.36.683,random_dot,2023.2.3,59.92042567740819,2024-03-07 12h50.41.780278 +0100,
left,left,,,,,2,1,5,0,,,,,75.84033679999993,,,,,,,,,75.82499470000039,76.62482080000336,77.42697149999731,77.4105428000039,77.41055440000491,77.42697149999731,77.42697149999731,77.51040210000065,78.20974659999774,right,0.6894704000005731,None,,,,,,,,,,,,,,,,,,,,,sub-025860,001,2024-03-07_12h50.36.683,random_dot,2023.2.3,59.92042567740819,2024-03-07 12h50.41.780278 +0100,
left,left,,,,,3,0,6,0,,,,,78.2261470999947,,,,,,,,,78.2101321999944,78.5613774999947,79.36196850000124,79.34562870000082,79.34564050000336,79.36196850000124,79.36196850000124,79.44532040000195,81.66436799999792,left,2.2030393999884836,None,,,,,,,,,,,,80.86327640000673,,,,,,,,,sub-025860,001,2024-03-07_12h50.36.683,random_dot,2023.2.3,59.92042567740819,2024-03-07 12h50.41.780278 +0100,
right,right,,,,,3,1,7,1,,,,,81.68062650000502,,,,,,,,,81.66476719999628,82.46450390000246,83.26353110000491,83.24710760000744,83.24711880000541,83.26353110000491,83.26353110000491,83.34856280000531,84.14991570000711,right,0.7880844000028446,None,,,,,,,,,,,,,,,,,,,,,sub-025860,001,2024-03-07_12h50.36.683,random_dot,2023.2.3,59.92042567740819,2024-03-07 12h50.41.780278 +0100,
left,left,,,,,4,0,8,0,,,,,84.16428470000392,,,,,,,,,84.15034860000014,84.49978969999938,85.30023710000387,85.28371899999911,85.28372970000783,85.30023710000387,85.30023710000387,85.38357890000043,86.11656700000458,left,0.7281687000067905,None,,,,,,,,,,,,,,,,,,,,,sub-025860,001,2024-03-07_12h50.36.683,random_dot,2023.2.3,59.92042567740819,2024-03-07 12h50.41.780278 +0100,
right,right,,,,,4,1,9,1,,,,,86.13427350000711,,,,,,,,,86.1170134999993,86.4678899999999,87.28517170000123,87.26727710000705,87.2672925000079,87.28517170000123,87.28517170000123,87.36861869999848,87.93467679999594,right,0.5596967000019504,None,,,,,,,,,,,,,,,,,,,,,sub-025860,001,2024-03-07_12h50.36.683,random_dot,2023.2.3,59.92042567740819,2024-03-07 12h50.41.780278 +0100,
right,right,,,,,5,0,10,1,,,,,87.95243800000753,,,,,,,,,87.93506309999793,88.73637050000252,89.53545559999475,89.52066199999535,89.52067389999866,89.53545559999475,89.53545559999475,89.63796740000544,90.08626399999775,right,0.44231219998619054,None,,,,,,,,,,,,,,,,,,,,,sub-025860,001,2024-03-07_12h50.36.683,random_dot,2023.2.3,59.92042567740819,2024-03-07 12h50.41.780278 +0100,
left,left,,,,,5,1,11,0,,,,,90.10263560000749,,,,,,,,,90.08665349999501,90.43616130000737,91.2368703999964,91.22209500000463,91.2221070999949,91.2368703999964,91.2368703999964,91.33694409999589,92.15636730000551,left,0.8151967000012519,None,,,,,,,,,,,,,,,,,,,,,sub-025860,001,2024-03-07_12h50.36.683,random_dot,2023.2.3,59.92042567740819,2024-03-07 12h50.41.780278 +0100,
right,right,,,,,6,0,12,1,,,,,92.17258270000457,,,,,,,,,92.15677309999592,92.50624960000277,93.30692980000458,93.29042600000685,93.2904361999972,93.30692980000458,93.30692980000458,93.40701209999679,94.12302600000112,right,0.7130629000021145,None,,,,,,,,,,,,,,,,,,,,,sub-025860,001,2024-03-07_12h50.36.683,random_dot,2023.2.3,59.92042567740819,2024-03-07 12h50.41.780278 +0100,
left,left,,,,,6,1,13,0,,,,,94.14101279999886,,,,,,,,,94.12342780000472,95.32518519999576,96.12583570000425,96.10786469999584,96.10787629999686,96.12583570000425,96.12583570000425,96.20764370000688,97.07526990000042,left,0.8639412999909837,None,,,,,,,,,,,,,,,,,,,,,sub-025860,001,2024-03-07_12h50.36.683,random_dot,2023.2.3,59.92042567740819,2024-03-07 12h50.41.780278 +0100,
left,left,,,,,7,0,14,0,,,,,97.09333530000004,,,,,,,,,97.07565800000157,97.42695249999815,98.22600629999943,98.21123260000604,98.21124340000097,98.22600629999943,98.22600629999943,98.31096350000007,99.36237010000332,left,1.0493060000007972,None,,,,,,,,,,,,,,,,,,,,,sub-025860,001,2024-03-07_12h50.36.683,random_dot,2023.2.3,59.92042567740819,2024-03-07 12h50.41.780278 +0100,
right,right,,,,,7,1,15,1,,,,,99.37871410000662,,,,,,,,,99.36277930000506,100.16089889999421,100.9632522000029,100.9468790999963,100.94689069999731,100.9632522000029,100.9632522000029,101.04657259999658,101.43079529999522,right,0.36940250000043306,None,,,,,,,,,,,,,,,,,,,,,sub-025860,001,2024-03-07_12h50.36.683,random_dot,2023.2.3,59.92042567740819,2024-03-07 12h50.41.780278 +0100,
left,left,,,,,8,0,16,0,,,,,101.44699219999893,,,,,,,,,101.43118490000779,101.77894479999668,102.58115199999884,102.56325310000102,102.56326450000051,102.58115199999884,102.58115199999884,102.66300329999649,103.0304627000005,left,0.35361819999525324,None,,,,,,,,,,,,,,,,,,,,,sub-025860,001,2024-03-07_12h50.36.683,random_dot,2023.2.3,59.92042567740819,2024-03-07 12h50.41.780278 +0100,
right,right,,,,,8,1,17,1,,,,,103.04826440000033,,,,,,,,,103.03085330000613,103.13165359999402,103.94898010000179,103.93265319999773,103.93266429999494,103.94898010000179,103.94898010000179,104.04904440000246,104.66689870000118,right,0.6164308000006713,None,,,,,,,,,,,,,,,,,,,,,sub-025860,001,2024-03-07_12h50.36.683,random_dot,2023.2.3,59.92042567740819,2024-03-07 12h50.41.780278 +0100,
right,right,,,,,9,0,18,1,,,,,104.68305320000218,,,,,,,,,104.66729169999599,105.46692289999919,106.26759820000734,106.25117259999388,106.25118360000488,106.26759820000734,106.26759820000734,106.35098149999976,106.9020126999967,right,0.5372955000057118,None,,,,,,,,,,,,,,,,,,,,,sub-025860,001,2024-03-07_12h50.36.683,random_dot,2023.2.3,59.92042567740819,2024-03-07 12h50.41.780278 +0100,
left,left,,,,,9,1,19,0,,,,,106.91806939999515,,,,,,,,,106.90241320000496,107.70219050000014,108.50275529999635,108.48642119999568,108.48643210000591,108.50275529999635,108.50275529999635,108.58618519999436,109.00366270000814,left,0.41348639999341685,None,,,,,,,,,,,,,,,,,,,,,sub-025860,001,2024-03-07_12h50.36.683,random_dot,2023.2.3,59.92042567740819,2024-03-07 12h50.41.780278 +0100,
left,left,,,,,10,0,20,0,,,,,109.01994050000212,,,,,,,,,109.00406780000776,109.10162129999662,109.90400599999703,109.88750149999396,109.88751359999878,109.90400599999703,109.90400599999703,110.00251510000089,110.58841549999488,left,0.58137309999438,None,,,,,,,,,,,,,,,,,,,,,sub-025860,001,2024-03-07_12h50.36.683,random_dot,2023.2.3,59.92042567740819,2024-03-07 12h50.41.780278 +0100,
right,right,,,,,10,1,21,1,,,,,110.60288880000007,,,,,,,,,110.58882960000483,111.40351249999367,112.204178400003,112.18806719999702,112.18809330000659,112.204178400003,112.204178400003,112.28922829999647,112.8219012000045,right,0.5267162999953143,None,,,,,,,,,,,,,,,,,,,,,sub-025860,001,2024-03-07_12h50.36.683,random_dot,2023.2.3,59.92042567740819,2024-03-07 12h50.41.780278 +0100,
left,left,,,,,11,0,22,0,,,,,112.83816240000306,,,,,,,,,112.82231370000227,113.17337520000001,113.97246859999723,113.9575954000029,113.95760759999393,113.97246859999723,113.97246859999723,114.05744410000625,114.65843300000415,left,0.5903516999969725,None,,,,,,,,,,,,,,,,,,,,,sub-025860,001,2024-03-07_12h50.36.683,random_dot,2023.2.3,59.92042567740819,2024-03-07 12h50.41.780278 +0100,
right,right,,,,,11,1,23,1,,,,,114.67463880000287,,,,,,,,,114.6588369999954,114.75798730000679,115.55862150000758,115.54227619999438,115.54229120000673,115.55862150000758,115.55862150000758,115.64213560000644,121.59744389999832,right,5.949468099992373,None,,,,,,,,,,,,117.05992149999656,120.54618649999611,,,,,,,,sub-025860,001,2024-03-07_12h50.36.683,random_dot,2023.2.3,59.92042567740819,2024-03-07 12h50.41.780278 +0100,
right,right,,,,,12,0,24,1,,,,,121.61371819999476,,,,,,,,,121.59785449999617,121.6970122000057,122.49610499999835,122.4813814000081,122.48139240000455,122.49610499999835,122.49610499999835,122.5977825000009,123.16544860000431,right,0.5540113999886671,None,,,,,,,,,,,,,,,,,,,,,sub-025860,001,2024-03-07_12h50.36.683,random_dot,2023.2.3,59.92042567740819,2024-03-07 12h50.41.780278 +0100,
left,left,,,,,12,1,25,0,,,,,123.18167439999525,,,,,,,,,123.16584590000275,123.51526620000368,124.33254350000061,124.3146010000055,124.3146115999989,124.33254350000061,124.33254350000061,124.41597830000683,133.05687970000145,left,8.632580899997265,None,,,,,,,,,,,,125.83389840000018,129.32003820000682,,,,,,,,sub-025860,001,2024-03-07_12h50.36.683,random_dot,2023.2.3,59.92042567740819,2024-03-07 12h50.41.780278 +0100,
left,left,,,,,13,0,26,0,,,,,133.07315019999805,,,,,,,,,133.0572913000069,133.1564967000013,133.95554350000748,133.93926509999437,133.93927679999615,133.95554350000748,133.95554350000748,134.0391146000038,134.55647120000503,left,0.5129209000006085,None,,,,,,,,,,,,,,,,,,,,,sub-025860,001,2024-03-07_12h50.36.683,random_dot,2023.2.3,59.92042567740819,2024-03-07 12h50.41.780278 +0100,
right,right,,,,,13,1,27,1,,,,,134.57451059999585,,,,,,,,,134.55684750000364,134.9081029999943,135.7070800000074,135.69074120000005,135.69075290000183,135.7070800000074,135.7070800000074,135.79048389999662,136.5771964000014,left,0.7856693000067025,None,,,,,,,,,,,,,,,,,,,,,sub-025860,001,2024-03-07_12h50.36.683,random_dot,2023.2.3,59.92042567740819,2024-03-07 12h50.41.780278 +0100,
right,right,,,,,14,0,28,1,,,,,136.59122270000807,,,,,,,,,136.57763670000713,137.39179350000632,138.19249919999857,138.17592920000607,138.1759405000048,138.19249919999857,138.19249919999857,138.27746090000437,141.09697830000368,right,2.811204199999338,None,,,,,,,,,,,,139.69533159999992,,,,,,,,,sub-025860,001,2024-03-07_12h50.36.683,random_dot,2023.2.3,59.92042567740819,2024-03-07 12h50.41.780278 +0100,
left,left,,,,,14,1,29,0,,,,,141.1132060999953,,,,,,,,,141.097377099999,142.29744179999398,143.09638830000767,143.08168479999586,143.0816962999961,143.09638830000767,143.09638830000767,143.18149590000394,144.91687190000084,left,1.7222981999948388,None,,,,,,,,,,,,144.5993904000061,,,,,,,,,sub-025860,001,2024-03-07_12h50.36.683,random_dot,2023.2.3,59.92042567740819,2024-03-07 12h50.41.780278 +0100,
left,left,,,,,15,0,30,0,,,,,144.93291590000445,,,,,,,,,144.91727879999962,145.01452209999843,145.81701579999935,145.80066900000384,145.80067989999952,145.81701579999935,145.81701579999935,145.89885719999438,151.35557960000006,right,5.445586199988611,None,,,,,,,,,,,,147.3192984000052,150.8030282999971,,,,,,,,sub-025860,001,2024-03-07_12h50.36.683,random_dot,2023.2.3,59.92042567740819,2024-03-07 12h50.41.780278 +0100,
right,right,,,,,15,1,31,1,,,,,151.3725826000009,,,,,,,,,151.35598589999427,152.55600989999948,153.35671330000332,153.34020330000203,153.34021629999916,153.35671330000332,153.35671330000332,153.44010819999676,155.20876080000016,right,1.7596168000018224,None,,,,,,,,,,,,154.85788739999407,,,,,,,,,sub-025860,001,2024-03-07_12h50.36.683,random_dot,2023.2.3,59.92042567740819,2024-03-07 12h50.41.780278 +0100,
right,right,,,,,16,0,32,1,,,,,155.224856300003,,,,,,,,,155.2091558999964,155.3083323000028,156.10898930000258,156.09257170000637,156.0925830000051,156.10898930000258,156.10898930000258,156.192214900002,157.2104113999958,right,1.016122599990922,None,,,,,,,,,,,,,,,,,,,,,sub-025860,001,2024-03-07_12h50.36.683,random_dot,2023.2.3,59.92042567740819,2024-03-07 12h50.41.780278 +0100,
left,left,,,,,16,1,33,0,,,,,157.2266993999947,,,,,,,,,157.21083500000532,158.41087340000377,159.2264972999983,159.2117872999952,159.21179899999697,159.2264972999983,159.2264972999983,159.32836020000104,159.76098039999488,right,0.423244399993564,None,,,,,,,,,,,,,,,,,,,,,sub-025860,001,2024-03-07_12h50.36.683,random_dot,2023.2.3,59.92042567740819,2024-03-07 12h50.41.780278 +0100,
right,right,,,,,17,0,34,1,,,,,159.77862460000324,,,,,,,,,159.76136810000753,160.5627225000062,161.3617077999952,161.34685630000604,161.346867500004,161.3617077999952,161.3617077999952,161.46182450000197,162.11401960000512,right,0.6343246000033105,None,,,,,,,,,,,,,,,,,,,,,sub-025860,001,2024-03-07_12h50.36.683,random_dot,2023.2.3,59.92042567740819,2024-03-07 12h50.41.780278 +0100,
left,left,,,,,17,1,35,0,,,,,162.12888910000038,,,,,,,,,162.11444940000365,162.9296095000027,163.73022599999967,163.71553040000435,163.71554230000766,163.73022599999967,163.73022599999967,163.8303534000006,164.4147176999977,left,0.5701441999990493,None,,,,,,,,,,,,,,,,,,,,,sub-025860,001,2024-03-07_12h50.36.683,random_dot,2023.2.3,59.92042567740819,2024-03-07 12h50.41.780278 +0100,
right,right,,,,,18,0,36,1,,,,,164.4308796999976,,,,,,,,,164.41511380000156,165.61677829999826,166.41748289999668,166.40118200000143,166.40119309999864,166.41748289999668,166.41748289999668,166.49929059999704,166.9517487999983,right,0.44504639999649953,None,,,,,,,,,,,,,,,,,,,,,sub-025860,001,2024-03-07_12h50.36.683,random_dot,2023.2.3,59.92042567740819,2024-03-07 12h50.41.780278 +0100,
left,left,,,,,18,1,37,0,,,,,166.9679574000038,,,,,,,,,166.95216699999582,168.15217210000264,168.95292130000598,168.93662609999592,168.93664020000142,168.95292130000598,168.95292130000598,169.03633919999993,169.72110280000197,left,0.6835525000060443,None,,,,,,,,,,,,,,,,,,,,,sub-025860,001,2024-03-07_12h50.36.683,random_dot,2023.2.3,59.92042567740819,2024-03-07 12h50.41.780278 +0100,
left,left,,,,,19,0,38,0,,,,,169.73527040000772,,,,,,,,,169.72174750000704,170.52091310000105,171.32152759999735,171.30359999999928,171.30361230000563,171.32152759999735,171.32152759999735,171.40492640000593,171.88746519999404,left,0.47556629999598954,None,,,,,,,,,,,,,,,,,,,,,sub-025860,001,2024-03-07_12h50.36.683,random_dot,2023.2.3,59.92042567740819,2024-03-07 12h50.41.780278 +0100,
right,right,,,,,19,1,39,1,,,,,171.90545730000304,,,,,,,,,171.88797870000417,172.2390052999981,173.03964610000548,173.02364970000053,173.02367769999546,173.03964610000548,173.03964610000548,173.12304419999418,173.64068450000195,right,0.501279699994484,None,,,,,,,,,,,,,,,,,,,,,sub-025860,001,2024-03-07_12h50.36.683,random_dot,2023.2.3,59.92042567740819,2024-03-07 12h50.41.780278 +0100,
,,,,,,,,,,,,,,,,,,,,,,,,,,,,,,,,,,,,,,,,,,,,,,,,173.6409524000046,173.65502689999994,173.65502689999994,183.498871600008,space,9.840941799993743,None,sub-025860,001,2024-03-07_12h50.36.683,random_dot,2023.2.3,59.92042567740819,2024-03-07 12h50.41.780278 +0100,
,,,,,,,,,,,,,,183.51501060000737,,,,,,,,,183.50276730000041,183.84859649999999,184.64930590000586,184.63297500000044,184.6329861999984,184.64930590000586,184.64930590000586,184.7327484999987,,,,,,,,,,,,,,,,,,,,,,,,,,,,,,,,
