direction,corrAns,randomInstr,practice_run_loop.thisRepN,practice_run_loop.thisTrialN,practice_run_loop.thisN,practice_run_loop.thisIndex,instr.thisRepN,instr.thisTrialN,instr.thisN,instr.thisIndex,loop.thisRepN,loop.thisTrialN,loop.thisN,loop.thisIndex,thisRow.t,notes,general_instruction.started,textInstr.started,respInstr.started,general_instruction.stopped,respInstr.keys,respInstr.rt,respInstr.duration,ITI.started,fixcross.started,fixcross.stopped,ITI.stopped,dots.started,backgroundDots.started,stimulusDots.started,respDots.started,dots.stopped,respDots.keys,respDots.corr,respDots.rt,respDots.duration,feedback.started,textFeedback.started,textFeedback.stopped,feedback.stopped,info.started,instrBeginTest.started,keyRespBeginTest.started,info.stopped,keyRespBeginTest.keys,keyRespBeginTest.rt,keyRespBeginTest.duration,main_instruction.started,text.started,key_resp.started,main_instruction.stopped,key_resp.keys,key_resp.rt,key_resp.duration,random_instruction.started,textRandomInstr.started,respRandomInstr.started,random_instruction.stopped,respRandomInstr.keys,respRandomInstr.rt,respRandomInstr.duration,goodbye.started,goodbye_text.started,goodbye.stopped,participant,session,date,expName,psychopyVersion,frameRate,expStart,
,,,,,,,,,,,,,,,,,0.04554120000011608,0.06853249999949185,0.06853249999949185,20.486931899999945,space,20.405600199999753,None,,,,,,,,,,,,,,,,,,,,,,,,,,,,,,,,,,,,,,,,,,sub-095799,001,2024-03-09_13h54.37.627,random_dot,2023.2.3,59.94600064274645,2024-03-09 13h54.42.301977 +0100,
left,left,accuracy,0,0,0,0,,,,,,,,,20.49955929999942,,,,,,,,,20.4913918000002,21.702365799999825,22.50301479999962,22.486610799999653,22.486621999999443,22.50301479999962,22.50301479999962,22.50301479999962,22.868833300000006,right,0,0.3543678000005457,None,22.869237400000202,22.88500699999986,23.38706209999964,23.369040900000073,,,,,,,,,,,,,,,,,,,,,,,,,sub-095799,001,2024-03-09_13h54.37.627,random_dot,2023.2.3,59.94600064274645,2024-03-09 13h54.42.301977 +0100,
right,right,speed,0,1,1,1,,,,,,,,,23.38706209999964,,,,,,,,,23.369258900000204,23.47056379999958,24.27112699999998,24.254680399999415,24.254691499999353,24.27112699999998,24.27112699999998,24.27112699999998,24.888838699999724,right,1,0.6026872000002186,None,24.88911569999982,24.90325219999977,25.40535759999966,25.388934399999926,,,,,,,,,,,,,,,,,,,,,,,,,sub-095799,001,2024-03-09_13h54.37.627,random_dot,2023.2.3,59.94600064274645,2024-03-09 13h54.42.301977 +0100,
right,right,speed,1,0,2,1,,,,,,,,,25.40535759999966,,,,,,,,,25.389140100000077,25.739060199999585,26.539666799999395,26.523332599999776,26.523344700000052,26.539666799999395,26.539666799999395,26.539666799999395,27.04049479999958,left,0,0.4945743999996921,None,27.040755799999715,27.0550346,27.557119500000226,27.540829900000062,,,,,,,,,,,,,,,,,,,,,,,,,sub-095799,001,2024-03-09_13h54.37.627,random_dot,2023.2.3,59.94600064274645,2024-03-09 13h54.42.301977 +0100,
left,left,accuracy,1,1,3,0,,,,,,,,,27.557119500000226,,,,,,,,,27.54104289999941,27.64059780000025,28.441215400000146,28.424903099999938,28.42491449999943,28.441215400000146,28.441215400000146,28.441215400000146,28.94066759999987,right,0,0.48844910000025266,None,28.9409469000002,28.956699899999876,,29.442211300000054,,,,,,,,,,,,,,,,,,,,,,,,,sub-095799,001,2024-03-09_13h54.37.627,random_dot,2023.2.3,59.94600064274645,2024-03-09 13h54.42.301977 +0100,
right,right,speed,2,0,4,1,,,,,,,,,29.458775399999467,,,,,,,,,29.442419500000142,29.792306100000133,30.592968500000097,30.574988100000155,30.57499910000024,30.592968500000097,30.592968500000097,30.592968500000097,31.092373899999984,right,1,0.48903859999973065,None,31.092658499999743,31.108551799999987,,31.593935599999895,,,,,,,,,,,,,,,,,,,,,,,,,sub-095799,001,2024-03-09_13h54.37.627,random_dot,2023.2.3,59.94600064274645,2024-03-09 13h54.42.301977 +0100,
left,left,accuracy,2,1,5,0,,,,,,,,,31.610580800000207,,,,,,,,,31.594140799999877,31.693958500000008,32.494545200000175,32.47830749999957,32.478318299999955,32.494545200000175,32.494545200000175,32.494545200000175,33.49594100000013,right,0,0.9870160000000396,None,33.49622389999968,33.512100400000236,34.01250909999999,33.996071599999595,,,,,,,,,,,,,,,,,,,,,,,,,sub-095799,001,2024-03-09_13h54.37.627,random_dot,2023.2.3,59.94600064274645,2024-03-09 13h54.42.301977 +0100,
left,left,accuracy,3,0,6,0,,,,,,,,,34.01250909999999,,,,,,,,,33.99628010000015,34.346116699999584,35.14678879999974,35.130395499999395,35.130406700000094,35.14678879999974,35.14678879999974,35.14678879999974,35.68127149999964,left,1,0.5274425000006886,None,35.68154080000022,35.69557590000022,36.19774369999959,36.18185369999992,,,,,,,,,,,,,,,,,,,,,,,,,sub-095799,001,2024-03-09_13h54.37.627,random_dot,2023.2.3,59.94600064274645,2024-03-09 13h54.42.301977 +0100,
right,right,speed,3,1,7,1,,,,,,,,,36.19774369999959,,,,,,,,,36.182079399999566,37.38197779999973,38.182820699999866,38.16622589999952,38.16623629999958,38.182820699999866,38.182820699999866,38.182820699999866,38.78364150000016,right,1,0.5875126000000819,None,38.78392029999941,38.79977549999967,39.30020869999953,39.283952199999476,,,,,,,,,,,,,,,,,,,,,,,,,sub-095799,001,2024-03-09_13h54.37.627,random_dot,2023.2.3,59.94600064274645,2024-03-09 13h54.42.301977 +0100,
left,left,accuracy,4,0,8,0,,,,,,,,,39.30020869999953,,,,,,,,,39.28417769999942,40.48462610000024,41.285185300000194,41.268803099999786,41.26881400000002,41.285185300000194,41.285185300000194,41.285185300000194,41.76945609999984,left,1,0.46879900000021735,None,41.76971979999962,41.7856683,42.2861426999998,42.26965819999987,,,,,,,,,,,,,,,,,,,,,,,,,sub-095799,001,2024-03-09_13h54.37.627,random_dot,2023.2.3,59.94600064274645,2024-03-09 13h54.42.301977 +0100,
right,right,speed,4,1,9,1,,,,,,,,,42.2861426999998,,,,,,,,,42.26985580000019,43.06997109999975,43.87074659999962,43.85429019999992,43.85430129999986,43.87074659999962,43.87074659999962,43.87074659999962,44.35505149999972,right,1,0.4748600000002625,None,44.355333399999836,44.3711760999995,44.8715672999997,44.85505379999995,,,,,,,,,,,,,,,,,,,,,,,,,sub-095799,001,2024-03-09_13h54.37.627,random_dot,2023.2.3,59.94600064274645,2024-03-09 13h54.42.301977 +0100,
left,left,accuracy,5,0,10,0,,,,,,,,,44.8715672999997,,,,,,,,,44.855270899999596,46.072543100000075,46.87322369999947,46.85683739999968,46.856848499999614,46.87322369999947,46.87322369999947,46.87322369999947,47.590915900000255,left,1,0.7047137999998085,None,47.59118109999963,47.607119299999795,48.10763769999994,48.0911245999996,,,,,,,,,,,,,,,,,,,,,,,,,sub-095799,001,2024-03-09_13h54.37.627,random_dot,2023.2.3,59.94600064274645,2024-03-09 13h54.42.301977 +0100,
right,right,speed,5,1,11,1,,,,,,,,,48.10763769999994,,,,,,,,,48.091329799999585,48.891493699999955,49.6921999999995,49.67436859999998,49.67438029999994,49.6921999999995,49.6921999999995,49.6921999999995,50.1598156,right,1,0.461594000000332,None,50.16009799999938,50.175925099999404,50.676406399999905,50.65995320000002,,,,,,,,,,,,,,,,,,,,,,,,,sub-095799,001,2024-03-09_13h54.37.627,random_dot,2023.2.3,59.94600064274645,2024-03-09 13h54.42.301977 +0100,
right,right,speed,6,0,12,1,,,,,,,,,50.676406399999905,,,,,,,,,50.66015669999979,51.01000279999971,51.81062329999986,51.794231599999875,51.79424310000013,51.81062329999986,51.81062329999986,51.81062329999986,52.31144640000002,right,1,0.4955406999997649,None,52.31170589999965,52.32765990000007,52.82815740000024,52.811965599999894,,,,,,,,,,,,,,,,,,,,,,,,,sub-095799,001,2024-03-09_13h54.37.627,random_dot,2023.2.3,59.94600064274645,2024-03-09 13h54.42.301977 +0100,
left,left,accuracy,6,1,13,0,,,,,,,,,52.82815740000024,,,,,,,,,52.81217889999971,54.01244080000015,54.8131327000001,54.796902000000046,54.79691289999937,54.8131327000001,54.8131327000001,54.8131327000001,55.34748500000023,left,1,0.532475500000146,None,55.34775239999999,55.363564100000076,,55.86413139999968,,,,,,,,,,,,,,,,,,,,,,,,,sub-095799,001,2024-03-09_13h54.37.627,random_dot,2023.2.3,59.94600064274645,2024-03-09 13h54.42.301977 +0100,
right,right,speed,7,0,14,1,,,,,,,,,55.880643299999974,,,,,,,,,55.86435149999943,55.947370599999886,56.74800189999951,56.731658900000184,56.731673899999805,56.74800189999951,56.74800189999951,56.74800189999951,57.315719700000045,right,1,0.5662429000003613,None,57.31599069999993,57.3318220000001,57.83231840000008,57.815912000000026,,,,,,,,,,,,,,,,,,,,,,,,,sub-095799,001,2024-03-09_13h54.37.627,random_dot,2023.2.3,59.94600064274645,2024-03-09 13h54.42.301977 +0100,
left,left,accuracy,7,1,15,0,,,,,,,,,57.83231840000008,,,,,,,,,57.81612009999935,57.91562460000023,58.716309999999794,58.700059599999804,58.700070799999594,58.716309999999794,58.716309999999794,58.716309999999794,59.283962800000154,right,0,0.5662634000000253,None,59.28422899999987,59.29849550000017,59.80063859999973,59.78414619999967,,,,,,,,,,,,,,,,,,,,,,,,,sub-095799,001,2024-03-09_13h54.37.627,random_dot,2023.2.3,59.94600064274645,2024-03-09 13h54.42.301977 +0100,
right,right,speed,8,0,16,1,,,,,,,,,59.80063859999973,,,,,,,,,59.784353199999714,60.134154299999864,60.93485349999992,60.91853859999992,60.91855020000003,60.93485349999992,60.93485349999992,60.93485349999992,61.58589740000025,right,1,0.6430057000006855,None,61.58616650000022,61.600392100000136,62.100850799999535,62.08611969999947,,,,,,,,,,,,,,,,,,,,,,,,,sub-095799,001,2024-03-09_13h54.37.627,random_dot,2023.2.3,59.94600064274645,2024-03-09 13h54.42.301977 +0100,
left,left,accuracy,8,1,17,0,,,,,,,,,62.100850799999535,,,,,,,,,62.08632059999945,62.43442959999993,63.23680599999989,63.22030899999936,63.22032020000006,63.23680599999989,63.23680599999989,63.23680599999989,63.904517099999794,left,1,0.6532131000003574,None,63.904774599999655,63.92059439999957,64.42113840000002,64.40468569999939,,,,,,,,,,,,,,,,,,,,,,,,,sub-095799,001,2024-03-09_13h54.37.627,random_dot,2023.2.3,59.94600064274645,2024-03-09 13h54.42.301977 +0100,
left,left,accuracy,9,0,18,0,,,,,,,,,64.42113840000002,,,,,,,,,64.40487949999988,65.6054637999996,66.4060660999994,66.3895977000002,66.38960859999952,66.4060660999994,66.4060660999994,66.4060660999994,66.87220309999975,right,0,0.4515892999997959,None,66.87247479999951,66.88810229999945,,67.37366930000007,,,,,,,,,,,,,,,,,,,,,,,,,sub-095799,001,2024-03-09_13h54.37.627,random_dot,2023.2.3,59.94600064274645,2024-03-09 13h54.42.301977 +0100,
right,right,speed,9,1,19,1,,,,,,,,,67.39021559999946,,,,,,,,,67.37387130000025,67.72384019999936,68.52451279999968,68.50809370000025,68.50810430000001,68.52451279999968,68.52451279999968,68.52451279999968,69.05878839999968,left,0,0.5186981999995623,None,69.05906289999984,69.07492139999977,69.57540040000004,69.55891890000021,,,,,,,,,,,,,,,,,,,,,,,,,sub-095799,001,2024-03-09_13h54.37.627,random_dot,2023.2.3,59.94600064274645,2024-03-09 13h54.42.301977 +0100,
,,,,,,,,,,,,,,,,,,,,,,,,,,,,,,,,,,,,,,,,,69.55895679999958,69.57540040000004,69.57540040000004,73.52913910000007,space,3.9387329999999565,None,,,,,,,,,,,,,,,,,,sub-095799,001,2024-03-09_13h54.37.627,random_dot,2023.2.3,59.94600064274645,2024-03-09 13h54.42.301977 +0100,
,,,,,,,,,,,,,,,,,,,,,,,,,,,,,,,,,,,,,,,,,,,,,,,,73.52916019999975,73.54365659999985,73.54365659999985,81.25219379999999,space,7.691146000000117,None,,,,,,,,,,,sub-095799,001,2024-03-09_13h54.37.627,random_dot,2023.2.3,59.94600064274645,2024-03-09 13h54.42.301977 +0100,
left,left,accuracy,,,,,0,0,0,1,0,0,0,0,85.33835069999986,,,,,,,,,85.32651900000019,85.43684649999977,86.23910869999963,86.22279549999985,86.22280820000015,86.23910869999963,86.23910869999963,86.23910869999963,87.44067859999996,left,1,1.1867856999997457,None,,,,,,,,,,,,,,,,,,,81.2560427999997,81.2681891000002,81.2681891000002,85.32224260000021,space,4.045419199999742,None,,,,sub-095799,001,2024-03-09_13h54.37.627,random_dot,2023.2.3,59.94600064274645,2024-03-09 13h54.42.301977 +0100,
right,right,speed,,,,,0,0,0,1,0,1,1,1,87.45682269999998,,,,,,,,,87.44132949999948,88.24087400000008,89.04156899999998,89.0250974999999,89.0251088999994,89.04156899999998,89.04156899999998,89.04156899999998,90.04278900000008,right,1,0.9854972000002817,None,,,,,,,,,,,,,,,,,,,,,,,,,,,,,sub-095799,001,2024-03-09_13h54.37.627,random_dot,2023.2.3,59.94600064274645,2024-03-09 13h54.42.301977 +0100,
right,right,speed,,,,,0,0,0,1,1,0,2,1,90.05898969999998,,,,,,,,,90.0432839999994,90.39255319999938,91.19327789999988,91.17524419999972,91.17525589999968,91.19327789999988,91.19327789999988,91.19327789999988,92.04458030000023,left,0,0.8500030000004699,None,,,,,,,,,,,,,,,,,,,,,,,,,,,,,sub-095799,001,2024-03-09_13h54.37.627,random_dot,2023.2.3,59.94600064274645,2024-03-09 13h54.42.301977 +0100,
left,left,accuracy,,,,,0,0,0,1,1,1,3,0,92.0606373999999,,,,,,,,,92.04507360000025,92.84472319999986,93.66198279999935,93.64555139999993,93.64556209999955,93.66198279999935,93.66198279999935,93.66198279999935,94.49649869999939,right,0,0.8195819000002302,None,,,,,,,,,,,,,,,,,,,,,,,,,,,,,sub-095799,001,2024-03-09_13h54.37.627,random_dot,2023.2.3,59.94600064274645,2024-03-09 13h54.42.301977 +0100,
left,left,accuracy,,,,,0,0,0,1,2,0,4,0,94.51276280000002,,,,,,,,,94.49701089999962,94.84459169999991,95.64686819999952,95.6290282,95.62903970000025,95.64686819999952,95.64686819999952,95.64686819999952,96.27985669999998,left,1,0.6273531999995612,None,,,,,,,,,,,,,,,,,,,,,,,,,,,,,sub-095799,001,2024-03-09_13h54.37.627,random_dot,2023.2.3,59.94600064274645,2024-03-09 13h54.42.301977 +0100,
right,right,speed,,,,,0,0,0,1,2,1,5,1,96.2958563000002,,,,,,,,,96.28037640000002,97.48178610000014,98.28242929999942,98.26449609999963,98.26450779999959,98.28242929999942,98.28242929999942,98.28242929999942,98.79842800000006,right,1,0.503353000000061,None,,,,,,,,,,,,,,,,,,,,,,,,,,,,,sub-095799,001,2024-03-09_13h54.37.627,random_dot,2023.2.3,59.94600064274645,2024-03-09 13h54.42.301977 +0100,
left,left,accuracy,,,,,0,0,0,1,3,0,6,0,98.81623690000015,,,,,,,,,98.7989975999999,99.6002099999996,100.40093720000004,100.38459369999964,100.38460399999985,100.40093720000004,100.40093720000004,100.40093720000004,101.01860930000021,left,1,0.6014325000005556,None,,,,,,,,,,,,,,,,,,,,,,,,,,,,,sub-095799,001,2024-03-09_13h54.37.627,random_dot,2023.2.3,59.94600064274645,2024-03-09 13h54.42.301977 +0100,
right,right,speed,,,,,0,0,0,1,3,1,7,1,101.03476769999997,,,,,,,,,101.01912079999965,102.21905259999949,103.01974419999988,103.00339679999979,103.00340749999941,103.01974419999988,103.01974419999988,103.01974419999988,103.47056069999962,right,1,0.4464929999994638,None,,,,,,,,,,,,,,,,,,,,,,,,,,,,,sub-095799,001,2024-03-09_13h54.37.627,random_dot,2023.2.3,59.94600064274645,2024-03-09 13h54.42.301977 +0100,
left,left,accuracy,,,,,0,0,0,1,4,0,8,0,103.48686170000019,,,,,,,,,103.4710599,103.82037369999944,104.62110200000006,104.60456869999962,104.6045782000001,104.62110200000006,104.62110200000006,104.62110200000006,105.13874099999975,left,1,0.5084537000002456,None,,,,,,,,,,,,,,,,,,,,,,,,,,,,,sub-095799,001,2024-03-09_13h54.37.627,random_dot,2023.2.3,59.94600064274645,2024-03-09 13h54.42.301977 +0100,
right,right,speed,,,,,0,0,0,1,4,1,9,1,105.15486419999979,,,,,,,,,105.13923089999935,105.48852609999994,106.2891566999997,106.27276410000013,106.27277379999941,106.2891566999997,106.2891566999997,106.2891566999997,106.80672080000022,right,1,0.5126152000002548,None,,,,,,,,,,,,,,,,,,,,,,,,,,,,,sub-095799,001,2024-03-09_13h54.37.627,random_dot,2023.2.3,59.94600064274645,2024-03-09 13h54.42.301977 +0100,
right,right,speed,,,,,0,0,0,1,5,0,10,1,106.82284519999939,,,,,,,,,106.80721709999943,108.0071640999995,108.80793269999958,108.7914565000001,108.79146779999974,108.80793269999958,108.80793269999958,108.80793269999958,109.4256747999998,left,0,0.602469999999812,None,,,,,,,,,,,,,,,,,,,,,,,,,,,,,sub-095799,001,2024-03-09_13h54.37.627,random_dot,2023.2.3,59.94600064274645,2024-03-09 13h54.42.301977 +0100,
left,left,accuracy,,,,,0,0,0,1,5,1,11,0,109.4418212999999,,,,,,,,,109.42620329999954,110.22569179999937,111.0264318999998,111.00843480000003,111.00844589999997,111.0264318999998,111.0264318999998,111.0264318999998,111.5424524,right,0,0.5110753999997542,None,,,,,,,,,,,,,,,,,,,,,,,,,,,,,sub-095799,001,2024-03-09_13h54.37.627,random_dot,2023.2.3,59.94600064274645,2024-03-09 13h54.42.301977 +0100,
right,right,speed,,,,,0,0,0,1,6,0,12,1,111.56007319999935,,,,,,,,,111.54297849999966,112.74457499999971,113.54521269999987,113.52875440000025,113.52876469999956,113.54521269999987,113.54521269999987,113.54521269999987,114.19621819999975,right,1,0.6406393000006574,None,,,,,,,,,,,,,,,,,,,,,,,,,,,,,sub-095799,001,2024-03-09_13h54.37.627,random_dot,2023.2.3,59.94600064274645,2024-03-09 13h54.42.301977 +0100,
left,left,accuracy,,,,,0,0,0,1,6,1,13,0,114.21241860000009,,,,,,,,,114.19676249999975,114.29571919999944,115.09477009999955,115.08013299999948,115.0801448000002,115.09477009999955,115.09477009999955,115.09477009999955,115.84749039999951,right,0,0.7467255999999907,None,,,,,,,,,,,,,,,,,,,,,,,,,,,,,sub-095799,001,2024-03-09_13h54.37.627,random_dot,2023.2.3,59.94600064274645,2024-03-09 13h54.42.301977 +0100,
right,right,speed,,,,,0,0,0,1,7,0,14,1,115.86376430000018,,,,,,,,,115.84800389999964,117.0463635999995,117.84867639999993,117.83077439999943,117.83078560000013,117.84867639999993,117.84867639999993,117.84867639999993,118.46638900000016,right,1,0.6016921999998885,None,,,,,,,,,,,,,,,,,,,,,,,,,,,,,sub-095799,001,2024-03-09_13h54.37.627,random_dot,2023.2.3,59.94600064274645,2024-03-09 13h54.42.301977 +0100,
left,left,accuracy,,,,,0,0,0,1,7,1,15,0,118.48253729999942,,,,,,,,,118.46688189999986,118.56429440000011,119.3650232,119.3502238000001,119.35023829999955,119.3650232,119.3650232,119.3650232,119.9995100999995,left,1,0.6288919999997233,None,,,,,,,,,,,,,,,,,,,,,,,,,,,,,sub-095799,001,2024-03-09_13h54.37.627,random_dot,2023.2.3,59.94600064274645,2024-03-09 13h54.42.301977 +0100,
left,left,accuracy,,,,,0,0,0,1,8,0,16,0,120.01709519999986,,,,,,,,,120.00001379999958,120.8012289999997,121.60189989999981,121.58543989999998,121.58544960000017,121.60189989999981,121.60189989999981,121.60189989999981,122.16939579999962,right,0,0.5596394000003784,None,,,,,,,,,,,,,,,,,,,,,,,,,,,,,sub-095799,001,2024-03-09_13h54.37.627,random_dot,2023.2.3,59.94600064274645,2024-03-09 13h54.42.301977 +0100,
right,right,speed,,,,,0,0,0,1,8,1,17,1,122.18566499999997,,,,,,,,,122.16989730000023,122.2857684999999,123.0864004999994,123.07002889999967,123.07003970000005,123.0864004999994,123.0864004999994,123.0864004999994,123.68743799999993,right,1,0.5875175000001036,None,,,,,,,,,,,,,,,,,,,,,,,,,,,,,sub-095799,001,2024-03-09_13h54.37.627,random_dot,2023.2.3,59.94600064274645,2024-03-09 13h54.42.301977 +0100,
right,right,speed,,,,,0,0,0,1,9,0,18,1,123.70363600000019,,,,,,,,,123.68796879999991,124.88624359999994,125.68858389999968,125.67223849999937,125.67224970000007,125.68858389999968,125.68858389999968,125.68858389999968,126.43969389999984,right,1,0.7375733999997465,None,,,,,,,,,,,,,,,,,,,,,,,,,,,,,sub-095799,001,2024-03-09_13h54.37.627,random_dot,2023.2.3,59.94600064274645,2024-03-09 13h54.42.301977 +0100,
left,left,accuracy,,,,,0,0,0,1,9,1,19,0,126.45587089999935,,,,,,,,,126.44019479999952,127.23982780000006,128.04045899999983,128.02244549999978,128.02245709999988,128.04045899999983,128.04045899999983,128.04045899999983,128.80826119999983,left,1,0.7536573999996108,None,,,,,,,,,,,,,,,,,,,,,,,,,,,,,sub-095799,001,2024-03-09_13h54.37.627,random_dot,2023.2.3,59.94600064274645,2024-03-09 13h54.42.301977 +0100,
left,left,accuracy,,,,,0,0,0,1,10,0,20,0,128.82451989999936,,,,,,,,,128.80875419999938,128.90798639999957,129.7085735999999,129.6922622000002,129.69227379999938,129.7085735999999,129.7085735999999,129.7085735999999,130.34302370000023,right,0,0.6215406000001167,None,,,,,,,,,,,,,,,,,,,,,,,,,,,,,sub-095799,001,2024-03-09_13h54.37.627,random_dot,2023.2.3,59.94600064274645,2024-03-09 13h54.42.301977 +0100,
right,right,speed,,,,,0,0,0,1,10,1,21,1,130.3591133,,,,,,,,,130.34353379999993,131.14309849999972,131.94370519999939,131.92737109999962,131.9273830000002,131.94370519999939,131.94370519999939,131.94370519999939,132.54478669999935,right,1,0.5938665000003311,None,,,,,,,,,,,,,,,,,,,,,,,,,,,,,sub-095799,001,2024-03-09_13h54.37.627,random_dot,2023.2.3,59.94600064274645,2024-03-09 13h54.42.301977 +0100,
left,left,accuracy,,,,,0,0,0,1,11,0,22,0,132.5609141999994,,,,,,,,,132.54528719999962,132.89448230000016,133.69522030000007,133.67718009999953,133.67719109999962,133.69522030000007,133.69522030000007,133.69522030000007,134.84664179999982,left,1,1.1465783000003285,None,,,,,,,,,,,,,,,,,,,,,,,,,,,,,sub-095799,001,2024-03-09_13h54.37.627,random_dot,2023.2.3,59.94600064274645,2024-03-09 13h54.42.301977 +0100,
right,right,speed,,,,,0,0,0,1,11,1,23,1,134.86282429999937,,,,,,,,,134.8471515000001,135.1964971999996,135.9971386999996,135.98066930000005,135.98068439999952,135.9971386999996,135.9971386999996,135.9971386999996,136.57982850000008,right,1,0.5733116999999766,None,,,,,,,,,,,,,,,,,,,,,,,,,,,,,sub-095799,001,2024-03-09_13h54.37.627,random_dot,2023.2.3,59.94600064274645,2024-03-09 13h54.42.301977 +0100,
left,left,accuracy,,,,,0,0,0,1,12,0,24,0,136.5976837999997,,,,,,,,,136.5803724999996,136.93127490000006,137.73192579999977,137.71541459999935,137.71542969999973,137.73192579999977,137.73192579999977,137.73192579999977,138.31608349999988,left,1,0.5736525000002075,None,,,,,,,,,,,,,,,,,,,,,,,,,,,,,sub-095799,001,2024-03-09_13h54.37.627,random_dot,2023.2.3,59.94600064274645,2024-03-09 13h54.42.301977 +0100,
right,right,speed,,,,,0,0,0,1,12,1,25,1,138.33234399999947,,,,,,,,,138.3165957000001,138.41569569999956,139.2164428999995,139.20021199999974,139.20022309999968,139.2164428999995,139.2164428999995,139.2164428999995,139.8007867999995,right,1,0.5770355000004201,None,,,,,,,,,,,,,,,,,,,,,,,,,,,,,sub-095799,001,2024-03-09_13h54.37.627,random_dot,2023.2.3,59.94600064274645,2024-03-09 13h54.42.301977 +0100,
right,right,speed,,,,,0,0,0,1,13,0,26,1,139.8169128999998,,,,,,,,,139.80130169999939,139.89880399999947,140.70110849999946,140.6846988999996,140.68471090000003,140.70110849999946,140.70110849999946,140.70110849999946,141.26871990000018,right,1,0.5647380000000339,None,,,,,,,,,,,,,,,,,,,,,,,,,,,,,sub-095799,001,2024-03-09_13h54.37.627,random_dot,2023.2.3,59.94600064274645,2024-03-09 13h54.42.301977 +0100,
left,left,accuracy,,,,,0,0,0,1,13,1,27,0,141.28482749999966,,,,,,,,,141.2692232999998,141.61843729999964,142.4190848999997,142.40270249999958,142.40271359999952,142.4190848999997,142.4190848999997,142.4190848999997,143.28723979999995,left,1,0.8550241000002643,None,,,,,,,,,,,,,,,,,,,,,,,,,,,,,sub-095799,001,2024-03-09_13h54.37.627,random_dot,2023.2.3,59.94600064274645,2024-03-09 13h54.42.301977 +0100,
left,left,accuracy,,,,,0,0,0,1,14,0,28,0,143.3031102999994,,,,,,,,,143.28775769999993,144.0870946999994,144.88778980000006,144.8714318000002,144.87144309999985,144.88778980000006,144.88778980000006,144.88778980000006,145.4554017999999,right,0,0.5618274000007659,None,,,,,,,,,,,,,,,,,,,,,,,,,,,,,sub-095799,001,2024-03-09_13h54.37.627,random_dot,2023.2.3,59.94600064274645,2024-03-09 13h54.42.301977 +0100,
right,right,speed,,,,,0,0,0,1,14,1,29,1,145.47167329999957,,,,,,,,,145.45590869999978,145.55501839999943,146.3556252999997,146.33926359999987,146.33927459999995,146.3556252999997,146.3556252999997,146.3556252999997,146.9402983,right,1,0.5837522000001627,None,,,,,,,,,,,,,,,,,,,,,,,,,,,,,sub-095799,001,2024-03-09_13h54.37.627,random_dot,2023.2.3,59.94600064274645,2024-03-09 13h54.42.301977 +0100,
left,left,accuracy,,,,,0,0,0,1,15,0,30,0,146.95616580000024,,,,,,,,,146.94079950000014,148.14052269999956,148.93948329999967,148.92479009999988,148.92480139999952,148.93948329999967,148.93948329999967,148.93948329999967,150.6914253999994,left,1,1.7421588000006523,None,,,,,,,,,,,,,,,,,,,,,,,,,,,,,sub-095799,001,2024-03-09_13h54.37.627,random_dot,2023.2.3,59.94600064274645,2024-03-09 13h54.42.301977 +0100,
right,right,speed,,,,,0,0,0,1,15,1,31,1,150.70767739999974,,,,,,,,,150.6919799999996,151.49324129999968,152.29396910000014,152.27779370000007,152.27780429999984,152.29396910000014,152.29396910000014,152.29396910000014,152.89334979999967,right,1,0.5960340999999971,None,,,,,,,,,,,,,,,,,,,,,,,,,,,,,sub-095799,001,2024-03-09_13h54.37.627,random_dot,2023.2.3,59.94600064274645,2024-03-09 13h54.42.301977 +0100,
right,right,speed,,,,,0,0,0,1,16,0,32,1,152.90950929999963,,,,,,,,,152.89390670000012,153.69511220000004,154.49572919999991,154.47936310000023,154.47937399999955,154.49572919999991,154.49572919999991,154.49572919999991,155.5303755999994,left,0,1.018537799999649,None,,,,,,,,,,,,,,,,,,,,,,,,,,,,,sub-095799,001,2024-03-09_13h54.37.627,random_dot,2023.2.3,59.94600064274645,2024-03-09 13h54.42.301977 +0100,
left,left,accuracy,,,,,0,0,0,1,16,1,33,0,155.54656449999948,,,,,,,,,155.5308728,155.63009460000012,156.43071340000006,156.41422749999947,156.4142393000002,156.43071340000006,156.43071340000006,156.43071340000006,157.08184340000025,right,0,0.643429599999763,None,,,,,,,,,,,,,,,,,,,,,,,,,,,,,sub-095799,001,2024-03-09_13h54.37.627,random_dot,2023.2.3,59.94600064274645,2024-03-09 13h54.42.301977 +0100,
right,right,speed,,,,,0,0,0,1,17,0,34,1,157.09797739999976,,,,,,,,,157.0823650000002,157.88191920000008,158.6825371999994,158.6660740999996,158.6660839999995,158.6825371999994,158.6825371999994,158.6825371999994,159.33355859999938,right,1,0.6473519999999553,None,,,,,,,,,,,,,,,,,,,,,,,,,,,,,sub-095799,001,2024-03-09_13h54.37.627,random_dot,2023.2.3,59.94600064274645,2024-03-09 13h54.42.301977 +0100,
left,left,accuracy,,,,,0,0,0,1,17,1,35,0,159.3498241999996,,,,,,,,,159.33405260000018,159.43323710000004,160.23219770000014,160.21739889999935,160.21741079999993,160.23219770000014,160.23219770000014,160.23219770000014,161.21683089999988,right,0,0.9780803000003289,None,,,,,,,,,,,,,,,,,,,,,,,,,,,,,sub-095799,001,2024-03-09_13h54.37.627,random_dot,2023.2.3,59.94600064274645,2024-03-09 13h54.42.301977 +0100,
right,right,speed,,,,,0,0,0,1,18,0,36,1,161.2346523999995,,,,,,,,,161.21736150000015,161.31801949999954,162.1186563000001,162.10073719999946,162.1007482999994,162.1186563000001,162.1186563000001,162.1186563000001,162.87001429999964,right,1,0.7396553999997195,None,,,,,,,,,,,,,,,,,,,,,,,,,,,,,sub-095799,001,2024-03-09_13h54.37.627,random_dot,2023.2.3,59.94600064274645,2024-03-09 13h54.42.301977 +0100,
left,left,accuracy,,,,,0,0,0,1,18,1,37,0,162.88611630000014,,,,,,,,,162.87050980000004,163.21805539999968,164.0203246000001,164.00227499999983,164.0022859999999,164.0203246000001,164.0203246000001,164.0203246000001,165.4371818999998,left,1,1.4051756999997451,None,,,,,,,,,,,,,,,,,,,,,,,,,,,,,sub-095799,001,2024-03-09_13h54.37.627,random_dot,2023.2.3,59.94600064274645,2024-03-09 13h54.42.301977 +0100,
left,left,accuracy,,,,,0,0,0,1,19,0,38,0,165.45490509999945,,,,,,,,,165.4376814999996,165.7884365,166.58908449999944,166.57105749999937,166.5710715999994,166.58908449999944,166.58908449999944,166.58908449999944,167.30531819999942,right,0,0.709106299999803,None,,,,,,,,,,,,,,,,,,,,,,,,,,,,,sub-095799,001,2024-03-09_13h54.37.627,random_dot,2023.2.3,59.94600064274645,2024-03-09 13h54.42.301977 +0100,
right,right,speed,,,,,0,0,0,1,19,1,39,1,167.3230255999997,,,,,,,,,167.3058274999994,167.40651519999938,168.20730379999986,168.19070319999992,168.1907145999994,168.20730379999986,168.20730379999986,168.20730379999986,168.84154080000008,right,1,0.6269900000006601,None,,,,,,,,,,,,,,,,,,,,,,,,,,,,,sub-095799,001,2024-03-09_13h54.37.627,random_dot,2023.2.3,59.94600064274645,2024-03-09 13h54.42.301977 +0100,
left,left,accuracy,,,,,0,0,0,1,20,0,40,0,168.85772670000006,,,,,,,,,168.84203459999935,168.94112080000014,169.74174029999995,169.7253351999998,169.72534769999947,169.74174029999995,169.74174029999995,169.74174029999995,171.07669339999939,right,0,1.3327406999997038,None,,,,,,,,,,,,,,,,,,,,,,,,,,,,,sub-095799,001,2024-03-09_13h54.37.627,random_dot,2023.2.3,59.94600064274645,2024-03-09 13h54.42.301977 +0100,
right,right,speed,,,,,0,0,0,1,20,1,41,1,171.09292219999952,,,,,,,,,171.07719290000023,172.27722829999948,173.07785819999935,173.06144140000015,173.0614526999998,173.07785819999935,173.07785819999935,173.07785819999935,173.9290504999999,right,1,0.8443305999999211,None,,,,,,,,,,,,,,,,,,,,,,,,,,,,,sub-095799,001,2024-03-09_13h54.37.627,random_dot,2023.2.3,59.94600064274645,2024-03-09 13h54.42.301977 +0100,
right,right,speed,,,,,0,0,0,1,21,0,42,1,173.94538339999963,,,,,,,,,173.9296822999995,175.1295682,175.93016629999966,175.91381920000003,175.91383049999968,175.93016629999966,175.93016629999966,175.93016629999966,177.11502199999995,right,1,1.1837230000001,None,,,,,,,,,,,,,,,,,,,,,,,,,,,,,sub-095799,001,2024-03-09_13h54.37.627,random_dot,2023.2.3,59.94600064274645,2024-03-09 13h54.42.301977 +0100,
left,left,accuracy,,,,,0,0,0,1,21,1,43,0,177.1312229999994,,,,,,,,,177.1155592999994,177.2146161999999,178.01524609999979,177.99881129999994,177.99882089999937,178.01524609999979,178.01524609999979,178.01524609999979,179.38362349999989,right,0,1.3550155999992057,None,,,,,,,,,,,,,,,,,,,,,,,,,,,,,sub-095799,001,2024-03-09_13h54.37.627,random_dot,2023.2.3,59.94600064274645,2024-03-09 13h54.42.301977 +0100,
right,right,speed,,,,,0,0,0,1,22,0,44,1,179.39977610000005,,,,,,,,,179.38414610000018,179.48150540000006,180.28376389999994,180.26737309999953,180.26738250000017,180.28376389999994,180.28376389999994,180.28376389999994,181.23517360000005,right,1,0.9419914000000063,None,,,,,,,,,,,,,,,,,,,,,,,,,,,,,sub-095799,001,2024-03-09_13h54.37.627,random_dot,2023.2.3,59.94600064274645,2024-03-09 13h54.42.301977 +0100,
left,left,accuracy,,,,,0,0,0,1,22,1,45,0,181.25131789999978,,,,,,,,,181.23566969999956,182.03520800000024,182.83586809999997,182.8195915999995,182.81960309999977,182.83586809999997,182.83586809999997,182.83586809999997,183.71881349999967,left,1,0.8702003000007608,None,,,,,,,,,,,,,,,,,,,,,,,,,,,,,sub-095799,001,2024-03-09_13h54.37.627,random_dot,2023.2.3,59.94600064274645,2024-03-09 13h54.42.301977 +0100,
left,left,accuracy,,,,,0,0,0,1,23,0,46,0,183.73663409999972,,,,,,,,,183.71936970000024,184.06876139999986,184.86926810000023,184.85455509999974,184.85456689999955,184.86926810000023,184.86926810000023,184.86926810000023,185.40365199999997,right,0,0.5251144999992903,None,,,,,,,,,,,,,,,,,,,,,,,,,,,,,sub-095799,001,2024-03-09_13h54.37.627,random_dot,2023.2.3,59.94600064274645,2024-03-09 13h54.42.301977 +0100,
right,right,speed,,,,,0,0,0,1,23,1,47,1,185.4213619000002,,,,,,,,,185.40415510000003,186.20377589999953,187.0060500999998,186.98959339999965,186.9896047000002,187.0060500999998,187.0060500999998,187.0060500999998,187.60539919999974,right,1,0.5881367000001774,None,,,,,,,,,,,,,,,,,,,,,,,,,,,,,sub-095799,001,2024-03-09_13h54.37.627,random_dot,2023.2.3,59.94600064274645,2024-03-09 13h54.42.301977 +0100,
right,right,speed,,,,,0,0,0,1,24,0,48,1,187.62317960000019,,,,,,,,,187.6058949999997,187.95680840000023,188.7575541999995,188.74107719999938,188.74108859999978,188.7575541999995,188.7575541999995,188.7575541999995,189.4252408000002,right,1,0.6522048999995604,None,,,,,,,,,,,,,,,,,,,,,,,,,,,,,sub-095799,001,2024-03-09_13h54.37.627,random_dot,2023.2.3,59.94600064274645,2024-03-09 13h54.42.301977 +0100,
left,left,accuracy,,,,,0,0,0,1,24,1,49,0,189.4414124999994,,,,,,,,,189.42573999999968,189.5248372999995,190.32550249999986,190.30918759999986,190.30919859999995,190.32550249999986,190.32550249999986,190.32550249999986,191.34345829999984,left,1,1.0052482000000964,None,,,,,,,,,,,,,,,,,,,,,,,,,,,,,sub-095799,001,2024-03-09_13h54.37.627,random_dot,2023.2.3,59.94600064274645,2024-03-09 13h54.42.301977 +0100,
left,left,accuracy,,,,,0,0,0,1,25,0,50,0,191.35972519999996,,,,,,,,,191.3439628999995,192.14359090000016,192.94432569999935,192.92799169999944,192.92800290000014,192.94432569999935,192.94432569999935,192.94432569999935,193.64526569999998,right,0,0.6979379000003973,None,,,,,,,,,,,,,,,,,,,,,,,,,,,,,sub-095799,001,2024-03-09_13h54.37.627,random_dot,2023.2.3,59.94600064274645,2024-03-09 13h54.42.301977 +0100,
right,right,speed,,,,,0,0,0,1,25,1,51,1,193.6615740999996,,,,,,,,,193.645759,193.7449789000002,194.54398260000016,194.52918349999982,194.52919819999988,194.54398260000016,194.54398260000016,194.54398260000016,195.62879199999952,right,1,1.081842300000062,None,,,,,,,,,,,,,,,,,,,,,,,,,,,,,sub-095799,001,2024-03-09_13h54.37.627,random_dot,2023.2.3,59.94600064274645,2024-03-09 13h54.42.301977 +0100,
right,right,speed,,,,,0,0,0,1,26,0,52,1,195.6464815999998,,,,,,,,,195.62929579999945,195.72830799999974,196.53057360000003,196.51423519999935,196.5142466999996,196.53057360000003,196.53057360000003,196.53057360000003,197.73054859999957,left,0,1.1914136999994298,None,,,,,,,,,,,,,,,,,,,,,,,,,,,,,sub-095799,001,2024-03-09_13h54.37.627,random_dot,2023.2.3,59.94600064274645,2024-03-09 13h54.42.301977 +0100,
left,left,accuracy,,,,,0,0,0,1,26,1,53,0,197.7482146000002,,,,,,,,,197.73105620000024,198.0818505999996,198.88086920000023,198.86628519999977,198.86629619999985,198.88086920000023,198.88086920000023,198.88086920000023,199.95062199999938,right,0,1.0567128000002413,None,,,,,,,,,,,,,,,,,,,,,,,,,,,,,sub-095799,001,2024-03-09_13h54.37.627,random_dot,2023.2.3,59.94600064274645,2024-03-09 13h54.42.301977 +0100,
right,right,speed,,,,,0,0,0,1,27,0,54,1,199.96520229999987,,,,,,,,,199.9511395999998,201.16615769999953,201.96678969999994,201.95232690000012,201.95233689999986,201.96678969999994,201.96678969999994,201.96678969999994,202.70297089999985,right,1,0.7235608000000866,None,,,,,,,,,,,,,,,,,,,,,,,,,,,,,sub-095799,001,2024-03-09_13h54.37.627,random_dot,2023.2.3,59.94600064274645,2024-03-09 13h54.42.301977 +0100,
left,left,accuracy,,,,,0,0,0,1,27,1,55,0,202.71906020000006,,,,,,,,,202.7034910000002,202.80088549999982,203.60151940000014,203.58670840000013,203.58671989999948,203.60151940000014,203.60151940000014,203.60151940000014,204.9381641,right,0,1.3284596999992573,None,,,,,,,,,,,,,,,,,,,,,,,,,,,,,sub-095799,001,2024-03-09_13h54.37.627,random_dot,2023.2.3,59.94600064274645,2024-03-09 13h54.42.301977 +0100,
right,right,speed,,,,,0,0,0,1,28,0,56,1,204.9541946999998,,,,,,,,,204.93866049999997,205.03611360000014,205.8382670000001,205.8220209000001,205.8220326999999,205.8382670000001,205.8382670000001,205.8382670000001,207.20506899999964,right,1,1.363655999999537,None,,,,,,,,,,,,,,,,,,,,,,,,,,,,,sub-095799,001,2024-03-09_13h54.37.627,random_dot,2023.2.3,59.94600064274645,2024-03-09 13h54.42.301977 +0100,
left,left,accuracy,,,,,0,0,0,1,28,1,57,0,207.22278730000016,,,,,,,,,207.20556489999944,208.40548899999976,209.20779700000003,209.19146230000024,209.1914740000002,209.20779700000003,209.20779700000003,209.20779700000003,210.3259853999998,right,0,1.105800499999532,None,,,,,,,,,,,,,,,,,,,,,,,,,,,,,sub-095799,001,2024-03-09_13h54.37.627,random_dot,2023.2.3,59.94600064274645,2024-03-09 13h54.42.301977 +0100,
right,right,speed,,,,,0,0,0,1,29,0,58,1,210.34202149999965,,,,,,,,,210.3265110000002,210.67569269999967,211.47630039999967,211.45996749999995,211.45997829999942,211.47630039999967,211.47630039999967,211.47630039999967,212.27750169999945,right,1,0.7898576000006869,None,,,,,,,,,,,,,,,,,,,,,,,,,,,,,sub-095799,001,2024-03-09_13h54.37.627,random_dot,2023.2.3,59.94600064274645,2024-03-09 13h54.42.301977 +0100,
left,left,accuracy,,,,,0,0,0,1,29,1,59,0,212.29373289999967,,,,,,,,,212.2780057,213.47799609999947,214.27874189999966,214.2622223999997,214.2622341999995,214.27874189999966,214.27874189999966,214.27874189999966,216.33105389999946,left,1,2.043451599999571,None,,,,,,,,,,,,,,,,,,,,,,,,,,,,,sub-095799,001,2024-03-09_13h54.37.627,random_dot,2023.2.3,59.94600064274645,2024-03-09 13h54.42.301977 +0100,
right,right,speed,,,,,0,0,0,1,,,,,,,,,,,,,,,,,,,,,,,,,,,,,,,,,,,,,,,,,,,,,,,,,,,,,,,sub-095799,001,2024-03-09_13h54.37.627,random_dot,2023.2.3,59.94600064274645,2024-03-09 13h54.42.301977 +0100,
left,left,accuracy,,,,,0,1,1,0,0,0,0,0,239.26615440000023,,,,,,,,,239.25415049999992,240.45032139999967,241.25107919999937,241.23467079999955,241.23468279999997,241.25107919999937,241.25107919999937,241.25107919999937,241.61906290000024,left,1,0.36702770000010787,None,,,,,,,,,,,,,,,,,,,216.3315447999994,216.34531329999936,216.34531329999936,239.24998529999993,space,22.89713010000014,None,,,,sub-095799,001,2024-03-09_13h54.37.627,random_dot,2023.2.3,59.94600064274645,2024-03-09 13h54.42.301977 +0100,
right,right,speed,,,,,0,1,1,0,0,1,1,1,241.63470609999968,,,,,,,,,241.61980779999976,241.98493559999952,242.78562239999974,242.76917400000002,242.76918359999945,242.78562239999974,242.78562239999974,242.78562239999974,243.2198813999994,right,1,0.43275230000017473,None,,,,,,,,,,,,,,,,,,,,,,,,,,,,,sub-095799,001,2024-03-09_13h54.37.627,random_dot,2023.2.3,59.94600064274645,2024-03-09 13h54.42.301977 +0100,
left,left,accuracy,,,,,0,1,1,0,1,0,2,0,243.2361761000002,,,,,,,,,243.22039810000024,243.3193494999996,244.1200348000002,244.10373489999984,244.10374619999948,244.1200348000002,244.1200348000002,244.1200348000002,244.5876601,left,1,0.4664632000003621,None,,,,,,,,,,,,,,,,,,,,,,,,,,,,,sub-095799,001,2024-03-09_13h54.37.627,random_dot,2023.2.3,59.94600064274645,2024-03-09 13h54.42.301977 +0100,
right,right,speed,,,,,0,1,1,0,1,1,3,1,244.60389919999943,,,,,,,,,244.58815719999984,244.68709500000023,245.48625970000012,245.47001249999994,245.47002489999977,245.48625970000012,245.48625970000012,245.48625970000012,245.90544880000016,right,1,0.40363799999977346,None,,,,,,,,,,,,,,,,,,,,,,,,,,,,,sub-095799,001,2024-03-09_13h54.37.627,random_dot,2023.2.3,59.94600064274645,2024-03-09 13h54.42.301977 +0100,
right,right,speed,,,,,0,1,1,0,2,0,4,1,245.92153999999937,,,,,,,,,245.9059643999999,246.70394589999978,247.5061912000001,247.48973919999935,247.4897503000002,247.5061912000001,247.5061912000001,247.5061912000001,247.90543359999992,right,1,0.39144039999973756,None,,,,,,,,,,,,,,,,,,,,,,,,,,,,,sub-095799,001,2024-03-09_13h54.37.627,random_dot,2023.2.3,59.94600064274645,2024-03-09 13h54.42.301977 +0100,
left,left,accuracy,,,,,0,1,1,0,2,1,5,0,247.92322150000018,,,,,,,,,247.9059440000001,249.10762419999992,249.90828189999957,249.89192579999963,249.89193780000005,249.90828189999957,249.90828189999957,249.90828189999957,250.39237729999968,right,0,0.47069529999953374,None,,,,,,,,,,,,,,,,,,,,,,,,,,,,,sub-095799,001,2024-03-09_13h54.37.627,random_dot,2023.2.3,59.94600064274645,2024-03-09 13h54.42.301977 +0100,
left,left,accuracy,,,,,0,1,1,0,3,0,6,0,250.4087196999999,,,,,,,,,250.39292579999983,251.1925040999995,251.99326849999943,251.97679729999982,251.97680760000003,251.99326849999943,251.99326849999943,251.99326849999943,252.66104110000015,left,1,0.6661039999999048,None,,,,,,,,,,,,,,,,,,,,,,,,,,,,,sub-095799,001,2024-03-09_13h54.37.627,random_dot,2023.2.3,59.94600064274645,2024-03-09 13h54.42.301977 +0100,
right,right,speed,,,,,0,1,1,0,3,1,7,1,252.6771675,,,,,,,,,252.6615579999998,253.0107637000001,253.8115412999996,253.7949867999996,253.79499769999984,253.8115412999996,253.8115412999996,253.8115412999996,254.57922989999952,right,1,0.7513998000003994,None,,,,,,,,,,,,,,,,,,,,,,,,,,,,,sub-095799,001,2024-03-09_13h54.37.627,random_dot,2023.2.3,59.94600064274645,2024-03-09 13h54.42.301977 +0100,
right,right,speed,,,,,0,1,1,0,4,0,8,1,254.59536959999969,,,,,,,,,254.5797281999994,254.92900409999947,255.72962889999962,255.71336679999968,255.71337949999997,255.72962889999962,255.72962889999962,255.72962889999962,256.5809036999999,right,1,0.8478989999994155,None,,,,,,,,,,,,,,,,,,,,,,,,,,,,,sub-095799,001,2024-03-09_13h54.37.627,random_dot,2023.2.3,59.94600064274645,2024-03-09 13h54.42.301977 +0100,
left,left,accuracy,,,,,0,1,1,0,4,1,9,0,256.5971668000002,,,,,,,,,256.5814458999994,256.6804315999998,257.4794400999999,257.46321519999947,257.4632266999997,257.4794400999999,257.4794400999999,257.4794400999999,258.31570379999994,left,1,0.8271952999994028,None,,,,,,,,,,,,,,,,,,,,,,,,,,,,,sub-095799,001,2024-03-09_13h54.37.627,random_dot,2023.2.3,59.94600064274645,2024-03-09 13h54.42.301977 +0100,
left,left,accuracy,,,,,0,1,1,0,5,0,10,0,258.3319004999994,,,,,,,,,258.3162143999998,258.6654502000001,259.46614299999965,259.4497464999995,259.44975859999977,259.46614299999965,259.46614299999965,259.46614299999965,259.91706069999964,left,1,0.44792620000043826,None,,,,,,,,,,,,,,,,,,,,,,,,,,,,,sub-095799,001,2024-03-09_13h54.37.627,random_dot,2023.2.3,59.94600064274645,2024-03-09 13h54.42.301977 +0100,
right,right,speed,,,,,0,1,1,0,5,1,11,1,259.9332260000001,,,,,,,,,259.9175914999996,260.01651349999975,260.8172558999995,260.80093729999953,260.8009480999999,260.8172558999995,260.8172558999995,260.8172558999995,261.5517834000002,right,1,0.728804699999273,None,,,,,,,,,,,,,,,,,,,,,,,,,,,,,sub-095799,001,2024-03-09_13h54.37.627,random_dot,2023.2.3,59.94600064274645,2024-03-09 13h54.42.301977 +0100,
left,left,accuracy,,,,,0,1,1,0,6,0,12,0,261.56791989999965,,,,,,,,,261.55229280000003,261.90156919999936,262.70044679999955,262.68582439999955,262.68583560000025,262.70044679999955,262.70044679999955,262.70044679999955,263.46838320000006,left,1,0.7658566999998584,None,,,,,,,,,,,,,,,,,,,,,,,,,,,,,sub-095799,001,2024-03-09_13h54.37.627,random_dot,2023.2.3,59.94600064274645,2024-03-09 13h54.42.301977 +0100,
right,right,speed,,,,,0,1,1,0,6,1,13,1,263.4861353999995,,,,,,,,,263.46889809999993,263.81974660000014,264.62041279999994,264.6040164999995,264.60402729999987,264.62041279999994,264.62041279999994,264.62041279999994,265.9389632000002,right,1,1.3174896999998964,None,,,,,,,,,,,,,,,,,,,,,,,,,,,,,sub-095799,001,2024-03-09_13h54.37.627,random_dot,2023.2.3,59.94600064274645,2024-03-09 13h54.42.301977 +0100,
right,right,speed,,,,,0,1,1,0,7,0,14,1,265.9549116999997,,,,,,,,,265.9394550999996,266.05491399999937,266.8555615999994,266.8393452999999,266.83935669999937,266.8555615999994,266.8555615999994,266.8555615999994,267.40500770000017,right,1,0.54622930000005,None,,,,,,,,,,,,,,,,,,,,,,,,,,,,,sub-095799,001,2024-03-09_13h54.37.627,random_dot,2023.2.3,59.94600064274645,2024-03-09 13h54.42.301977 +0100,
left,left,accuracy,,,,,0,1,1,0,7,1,15,0,267.42265599999973,,,,,,,,,267.40552449999996,268.60541060000014,269.40615290000005,269.3913404999994,269.3913520999995,269.40615290000005,269.40615290000005,269.40615290000005,270.3590494,left,1,0.9476371999999174,None,,,,,,,,,,,,,,,,,,,,,,,,,,,,,sub-095799,001,2024-03-09_13h54.37.627,random_dot,2023.2.3,59.94600064274645,2024-03-09 13h54.42.301977 +0100,
left,left,accuracy,,,,,0,1,1,0,8,0,16,0,270.3752021999999,,,,,,,,,270.3595545999997,271.55947279999964,272.3601123999997,272.3438570999997,272.34386769999946,272.3601123999997,272.3601123999997,272.3601123999997,272.82764359999965,right,0,0.46597269999983837,None,,,,,,,,,,,,,,,,,,,,,,,,,,,,,sub-095799,001,2024-03-09_13h54.37.627,random_dot,2023.2.3,59.94600064274645,2024-03-09 13h54.42.301977 +0100,
right,right,speed,,,,,0,1,1,0,8,1,17,1,272.8439822999999,,,,,,,,,272.8281640999994,274.0281315000002,274.82880939999995,274.8125590999998,274.81257019999975,274.82880939999995,274.82880939999995,274.82880939999995,275.4299044999998,right,1,0.5887602000002516,None,,,,,,,,,,,,,,,,,,,,,,,,,,,,,sub-095799,001,2024-03-09_13h54.37.627,random_dot,2023.2.3,59.94600064274645,2024-03-09 13h54.42.301977 +0100,
right,right,speed,,,,,0,1,1,0,9,0,18,1,275.4461145999994,,,,,,,,,275.43042849999983,275.52939419999984,276.3300909999998,276.31384179999986,276.3138533000001,276.3300909999998,276.3300909999998,276.3300909999998,276.8811058000001,right,1,0.543488499999512,None,,,,,,,,,,,,,,,,,,,,,,,,,,,,,sub-095799,001,2024-03-09_13h54.37.627,random_dot,2023.2.3,59.94600064274645,2024-03-09 13h54.42.301977 +0100,
left,left,accuracy,,,,,0,1,1,0,9,1,19,0,276.89731539999957,,,,,,,,,276.8816182999999,276.9806656999999,277.77961159999995,277.7650162,277.7650271000002,277.77961159999995,277.77961159999995,277.77961159999995,278.3490646999999,left,1,0.5661697000005006,None,,,,,,,,,,,,,,,,,,,,,,,,,,,,,sub-095799,001,2024-03-09_13h54.37.627,random_dot,2023.2.3,59.94600064274645,2024-03-09 13h54.42.301977 +0100,
right,right,speed,,,,,0,1,1,0,10,0,20,1,278.36519709999993,,,,,,,,,278.34957549999945,279.1490912999998,279.94977239999935,279.93343449999975,279.93344499999967,279.94977239999935,279.94977239999935,279.94977239999935,280.41656989999956,right,1,0.4520511999999144,None,,,,,,,,,,,,,,,,,,,,,,,,,,,,,sub-095799,001,2024-03-09_13h54.37.627,random_dot,2023.2.3,59.94600064274645,2024-03-09 13h54.42.301977 +0100,
left,left,accuracy,,,,,0,1,1,0,10,1,21,0,280.4336394000002,,,,,,,,,280.41727509999964,280.7671922999998,281.56786310000007,281.55141579999963,281.5514271000002,281.56786310000007,281.56786310000007,281.56786310000007,281.96868970000014,left,1,0.3941751000002114,None,,,,,,,,,,,,,,,,,,,,,,,,,,,,,sub-095799,001,2024-03-09_13h54.37.627,random_dot,2023.2.3,59.94600064274645,2024-03-09 13h54.42.301977 +0100,
right,right,speed,,,,,0,1,1,0,11,0,22,1,281.9848127999994,,,,,,,,,281.9691928000002,282.7687937999999,283.56946340000013,283.5530328999994,283.55304419999993,283.56946340000013,283.56946340000013,283.56946340000013,283.90196209999976,right,1,0.3295564000000013,None,,,,,,,,,,,,,,,,,,,,,,,,,,,,,sub-095799,001,2024-03-09_13h54.37.627,random_dot,2023.2.3,59.94600064274645,2024-03-09 13h54.42.301977 +0100,
left,left,accuracy,,,,,0,1,1,0,11,1,23,0,283.9198129999995,,,,,,,,,283.9024647999995,284.70202979999976,285.5028408999997,285.4879913999994,285.4880041999995,285.5028408999997,285.5028408999997,285.5028408999997,286.0553960999996,left,1,0.539292800000112,None,,,,,,,,,,,,,,,,,,,,,,,,,,,,,sub-095799,001,2024-03-09_13h54.37.627,random_dot,2023.2.3,59.94600064274645,2024-03-09 13h54.42.301977 +0100,
right,right,speed,,,,,0,1,1,0,12,0,24,1,286.0698849999999,,,,,,,,,286.0559125,286.1699420999994,286.9706593000001,286.9560203000001,286.95603219999975,286.9706593000001,286.9706593000001,286.9706593000001,287.4232522000002,right,1,0.44697809999979654,None,,,,,,,,,,,,,,,,,,,,,,,,,,,,,sub-095799,001,2024-03-09_13h54.37.627,random_dot,2023.2.3,59.94600064274645,2024-03-09 13h54.42.301977 +0100,
left,left,accuracy,,,,,0,1,1,0,12,1,25,0,287.4376857999996,,,,,,,,,287.4237923999999,287.77133969999977,288.5719165999999,288.5556666000002,288.55567789999986,288.5719165999999,288.5719165999999,288.5719165999999,288.9729219999999,right,0,0.39956720000009227,None,,,,,,,,,,,,,,,,,,,,,,,,,,,,,sub-095799,001,2024-03-09_13h54.37.627,random_dot,2023.2.3,59.94600064274645,2024-03-09 13h54.42.301977 +0100,
left,left,accuracy,,,,,0,1,1,0,13,0,26,0,288.9889621000002,,,,,,,,,288.9734066000001,289.3241866999997,290.1248590999994,290.1069698000001,290.1069805999996,290.1248590999994,290.1248590999994,290.1248590999994,290.80926569999974,left,1,0.6773316999997405,None,,,,,,,,,,,,,,,,,,,,,,,,,,,,,sub-095799,001,2024-03-09_13h54.37.627,random_dot,2023.2.3,59.94600064274645,2024-03-09 13h54.42.301977 +0100,
right,right,speed,,,,,0,1,1,0,13,1,27,1,290.82544249999955,,,,,,,,,290.8097785,291.1740788999996,291.9764642,291.96009739999954,291.9601081999999,291.9764642,291.9764642,291.9764642,292.5940759999994,right,1,0.6092195000001084,None,,,,,,,,,,,,,,,,,,,,,,,,,,,,,sub-095799,001,2024-03-09_13h54.37.627,random_dot,2023.2.3,59.94600064274645,2024-03-09 13h54.42.301977 +0100,
left,left,accuracy,,,,,0,1,1,0,14,0,28,0,292.6103412000002,,,,,,,,,292.5946076,292.94389839999985,293.7429277000001,293.72676090000004,293.7267738999999,293.7429277000001,293.7429277000001,293.7429277000001,294.29547209999964,right,0,0.5388200999996116,None,,,,,,,,,,,,,,,,,,,,,,,,,,,,,sub-095799,001,2024-03-09_13h54.37.627,random_dot,2023.2.3,59.94600064274645,2024-03-09 13h54.42.301977 +0100,
right,right,speed,,,,,0,1,1,0,14,1,29,1,294.3117266999998,,,,,,,,,294.2959876999994,295.09567160000006,295.89472729999943,295.87996810000004,295.8799804999999,295.89472729999943,295.89472729999943,295.89472729999943,296.4140609999995,right,1,0.5159794999999576,None,,,,,,,,,,,,,,,,,,,,,,,,,,,,,sub-095799,001,2024-03-09_13h54.37.627,random_dot,2023.2.3,59.94600064274645,2024-03-09 13h54.42.301977 +0100,
left,left,accuracy,,,,,0,1,1,0,15,0,30,0,296.4294132999994,,,,,,,,,296.41457309999987,296.51353409999956,297.3125126999994,297.29631150000023,297.29632589999983,297.3125126999994,297.3125126999994,297.3125126999994,297.86364739999954,left,1,0.5452894999998534,None,,,,,,,,,,,,,,,,,,,,,,,,,,,,,sub-095799,001,2024-03-09_13h54.37.627,random_dot,2023.2.3,59.94600064274645,2024-03-09 13h54.42.301977 +0100,
right,right,speed,,,,,0,1,1,0,15,1,31,1,297.87968999999975,,,,,,,,,297.8641926,297.9646912999997,298.7653701999998,298.74897919999967,298.7489908999996,298.7653701999998,298.7653701999998,298.7653701999998,299.7166738999995,left,0,0.9491042999998172,None,,,,,,,,,,,,,,,,,,,,,,,,,,,,,sub-095799,001,2024-03-09_13h54.37.627,random_dot,2023.2.3,59.94600064274645,2024-03-09 13h54.42.301977 +0100,
right,right,speed,,,,,0,1,1,0,16,0,32,1,299.7313902999995,,,,,,,,,299.71719329999996,300.5318562000002,301.33260580000024,301.31787519999943,301.3178865,301.33260580000024,301.33260580000024,301.33260580000024,301.91852669999935,right,1,0.5732494000003499,None,,,,,,,,,,,,,,,,,,,,,,,,,,,,,sub-095799,001,2024-03-09_13h54.37.627,random_dot,2023.2.3,59.94600064274645,2024-03-09 13h54.42.301977 +0100,
left,left,accuracy,,,,,0,1,1,0,16,1,33,0,301.93474679999963,,,,,,,,,301.9190523999996,302.0164651999994,302.81872889999977,302.8023081000001,302.80231920000006,302.81872889999977,302.81872889999977,302.81872889999977,303.3681256,left,1,0.5436489000003348,None,,,,,,,,,,,,,,,,,,,,,,,,,,,,,sub-095799,001,2024-03-09_13h54.37.627,random_dot,2023.2.3,59.94600064274645,2024-03-09 13h54.42.301977 +0100,
left,left,accuracy,,,,,0,1,1,0,17,0,34,0,303.38586159999977,,,,,,,,,303.36861659999977,304.57017670000005,305.37093149999964,305.3544869999996,305.35449789999984,305.37093149999964,305.37093149999964,305.37093149999964,305.8718054000001,right,0,0.4954403000001548,None,,,,,,,,,,,,,,,,,,,,,,,,,,,,,sub-095799,001,2024-03-09_13h54.37.627,random_dot,2023.2.3,59.94600064274645,2024-03-09 13h54.42.301977 +0100,
right,right,speed,,,,,0,1,1,0,17,1,35,1,305.8880173999996,,,,,,,,,305.87229860000025,305.97130430000016,306.7720674000002,306.75561670000025,306.75562790000004,306.7720674000002,306.7720674000002,306.7720674000002,307.48836389999997,right,1,0.7018327999994654,None,,,,,,,,,,,,,,,,,,,,,,,,,,,,,sub-095799,001,2024-03-09_13h54.37.627,random_dot,2023.2.3,59.94600064274645,2024-03-09 13h54.42.301977 +0100,
left,left,accuracy,,,,,0,1,1,0,18,0,36,0,307.5060109999995,,,,,,,,,307.48890909999955,308.2899032999994,309.09060339999996,309.0742903999999,309.0743007000001,309.09060339999996,309.09060339999996,309.09060339999996,309.5414774000001,left,1,0.4390638000004401,None,,,,,,,,,,,,,,,,,,,,,,,,,,,,,sub-095799,001,2024-03-09_13h54.37.627,random_dot,2023.2.3,59.94600064274645,2024-03-09 13h54.42.301977 +0100,
right,right,speed,,,,,0,1,1,0,18,1,37,1,309.5576712000002,,,,,,,,,309.54197209999984,310.7419861999997,311.5427043999998,311.5262226999994,311.52623479999966,311.5427043999998,311.5427043999998,311.5427043999998,312.3104248999998,left,0,0.7557696999992913,None,,,,,,,,,,,,,,,,,,,,,,,,,,,,,sub-095799,001,2024-03-09_13h54.37.627,random_dot,2023.2.3,59.94600064274645,2024-03-09 13h54.42.301977 +0100,
right,right,speed,,,,,0,1,1,0,19,0,38,1,312.32666040000004,,,,,,,,,312.31092329999956,312.6601357999998,313.46080359999996,313.44298290000006,313.44299369999953,313.46080359999996,313.46080359999996,313.46080359999996,313.99519820000023,right,1,0.5183405999996467,None,,,,,,,,,,,,,,,,,,,,,,,,,,,,,sub-095799,001,2024-03-09_13h54.37.627,random_dot,2023.2.3,59.94600064274645,2024-03-09 13h54.42.301977 +0100,
left,left,accuracy,,,,,0,1,1,0,19,1,39,0,314.01139030000013,,,,,,,,,313.99571209999976,315.19561950000025,315.9947419,315.9798160999999,315.9798274999994,315.9947419,315.9947419,315.9947419,316.6790065999994,left,1,0.6793593000002147,None,,,,,,,,,,,,,,,,,,,,,,,,,,,,,sub-095799,001,2024-03-09_13h54.37.627,random_dot,2023.2.3,59.94600064274645,2024-03-09 13h54.42.301977 +0100,
left,left,accuracy,,,,,0,1,1,0,20,0,40,0,316.695256,,,,,,,,,316.6795063999998,316.7803321000001,317.5793469,317.56311189999997,317.56312329999946,317.5793469,317.5793469,317.5793469,318.68236369999977,left,1,1.0871668999998292,None,,,,,,,,,,,,,,,,,,,,,,,,,,,,,sub-095799,001,2024-03-09_13h54.37.627,random_dot,2023.2.3,59.94600064274645,2024-03-09 13h54.42.301977 +0100,
right,right,speed,,,,,0,1,1,0,20,1,41,1,318.6986181000002,,,,,,,,,318.68287859999964,319.4825897999999,320.28318899999977,320.26691949999986,320.2669301999995,320.28318899999977,320.28318899999977,320.28318899999977,320.86759840000013,left,0,0.5677848999994239,None,,,,,,,,,,,,,,,,,,,,,,,,,,,,,sub-095799,001,2024-03-09_13h54.37.627,random_dot,2023.2.3,59.94600064274645,2024-03-09 13h54.42.301977 +0100,
right,right,speed,,,,,0,1,1,0,21,0,42,1,320.8837788999999,,,,,,,,,320.8680945999995,322.0680419999999,322.8687304999994,322.85225939999964,322.85227339999983,322.8687304999994,322.8687304999994,322.8687304999994,323.6531724999995,right,1,0.7816387000002578,None,,,,,,,,,,,,,,,,,,,,,,,,,,,,,sub-095799,001,2024-03-09_13h54.37.627,random_dot,2023.2.3,59.94600064274645,2024-03-09 13h54.42.301977 +0100,
left,left,accuracy,,,,,0,1,1,0,21,1,43,0,323.66947269999946,,,,,,,,,323.6536950999998,324.00300049999987,324.80198349999955,324.7872434000001,324.7872545,324.80198349999955,324.80198349999955,324.80198349999955,325.3212192000001,left,1,0.5121506000004956,None,,,,,,,,,,,,,,,,,,,,,,,,,,,,,sub-095799,001,2024-03-09_13h54.37.627,random_dot,2023.2.3,59.94600064274645,2024-03-09 13h54.42.301977 +0100,
left,left,accuracy,,,,,0,1,1,0,22,0,44,0,325.3374776999999,,,,,,,,,325.3217264999994,326.12137429999984,326.9220028999998,326.9057413999999,326.9057518999998,326.9220028999998,326.9220028999998,326.9220028999998,327.40624579999985,right,0,0.47249379999993835,None,,,,,,,,,,,,,,,,,,,,,,,,,,,,,sub-095799,001,2024-03-09_13h54.37.627,random_dot,2023.2.3,59.94600064274645,2024-03-09 13h54.42.301977 +0100,
right,right,speed,,,,,0,1,1,0,22,1,45,1,327.42242650000026,,,,,,,,,327.40674519999993,328.2064190000001,329.00706829999945,328.9907177999994,328.99072929999966,329.00706829999945,329.00706829999945,329.00706829999945,329.5564472999995,right,1,0.5469515000004321,None,,,,,,,,,,,,,,,,,,,,,,,,,,,,,sub-095799,001,2024-03-09_13h54.37.627,random_dot,2023.2.3,59.94600064274645,2024-03-09 13h54.42.301977 +0100,
left,left,accuracy,,,,,0,1,1,0,23,0,46,0,329.5726727000001,,,,,,,,,329.5569618999998,329.90627959999983,330.70844320000015,330.69212210000023,330.6921333,330.70844320000015,330.70844320000015,330.70844320000015,331.4079689,right,0,0.6858088999997562,None,,,,,,,,,,,,,,,,,,,,,,,,,,,,,sub-095799,001,2024-03-09_13h54.37.627,random_dot,2023.2.3,59.94600064274645,2024-03-09 13h54.42.301977 +0100,
right,right,speed,,,,,0,1,1,0,23,1,47,1,331.4257808000002,,,,,,,,,331.4084839999996,331.50751820000005,332.3081549999997,332.29339679999975,332.2934083,332.3081549999997,332.3081549999997,332.3081549999997,332.99426929999936,right,1,0.670791100000315,None,,,,,,,,,,,,,,,,,,,,,,,,,,,,,sub-095799,001,2024-03-09_13h54.37.627,random_dot,2023.2.3,59.94600064274645,2024-03-09 13h54.42.301977 +0100,
left,left,accuracy,,,,,0,1,1,0,24,0,48,0,333.0104554999998,,,,,,,,,332.99477169999955,334.1947005000002,334.9953835999995,334.9790873000002,334.9791003999999,334.9953835999995,334.9953835999995,334.9953835999995,335.77851589999955,right,0,0.7751407999994626,None,,,,,,,,,,,,,,,,,,,,,,,,,,,,,sub-095799,001,2024-03-09_13h54.37.627,random_dot,2023.2.3,59.94600064274645,2024-03-09 13h54.42.301977 +0100,
right,right,speed,,,,,0,1,1,0,24,1,49,1,335.7962385999999,,,,,,,,,335.7790447999996,335.8960898999994,336.6951514000002,336.6804545999994,336.6804655999995,336.6951514000002,336.6951514000002,336.6951514000002,337.2629483999999,right,1,0.5624582999998893,None,,,,,,,,,,,,,,,,,,,,,,,,,,,,,sub-095799,001,2024-03-09_13h54.37.627,random_dot,2023.2.3,59.94600064274645,2024-03-09 13h54.42.301977 +0100,
right,right,speed,,,,,0,1,1,0,25,0,50,1,337.2806419999997,,,,,,,,,337.2634674000001,337.3640687999996,338.16309660000024,338.14838280000004,338.14839329999995,338.16309660000024,338.16309660000024,338.16309660000024,339.0826520999999,right,1,0.9108697000001484,None,,,,,,,,,,,,,,,,,,,,,,,,,,,,,sub-095799,001,2024-03-09_13h54.37.627,random_dot,2023.2.3,59.94600064274645,2024-03-09 13h54.42.301977 +0100,
left,left,accuracy,,,,,0,1,1,0,25,1,51,0,339.0988698000001,,,,,,,,,339.08316319999994,340.2831351999994,341.0837911999997,341.06586439999955,341.0658751000001,341.0837911999997,341.0837911999997,341.0837911999997,342.0350897999997,left,1,0.935512999999446,None,,,,,,,,,,,,,,,,,,,,,,,,,,,,,sub-095799,001,2024-03-09_13h54.37.627,random_dot,2023.2.3,59.94600064274645,2024-03-09 13h54.42.301977 +0100,
left,left,accuracy,,,,,0,1,1,0,26,0,52,0,342.0512499999995,,,,,,,,,342.0355863999994,343.2356229999996,344.0363749999997,344.0198888999994,344.01990019999994,344.0363749999997,344.0363749999997,344.0363749999997,344.9541398000001,right,0,0.9093602000002647,None,,,,,,,,,,,,,,,,,,,,,,,,,,,,,sub-095799,001,2024-03-09_13h54.37.627,random_dot,2023.2.3,59.94600064274645,2024-03-09 13h54.42.301977 +0100,
right,right,speed,,,,,0,1,1,0,26,1,53,1,344.97033159999955,,,,,,,,,344.95466099999976,345.75439839999945,346.5549814999995,346.5386503999998,346.5386618000002,346.5549814999995,346.5549814999995,346.5549814999995,347.1226504999995,right,1,0.5522654999995211,None,,,,,,,,,,,,,,,,,,,,,,,,,,,,,sub-095799,001,2024-03-09_13h54.37.627,random_dot,2023.2.3,59.94600064274645,2024-03-09 13h54.42.301977 +0100,
right,right,speed,,,,,0,1,1,0,27,0,54,1,347.1388557,,,,,,,,,347.12318589999995,347.9227112999997,348.72178970000004,348.70717779999995,348.7071890999996,348.72178970000004,348.72178970000004,348.72178970000004,349.24119169999994,right,1,0.5046839999995427,None,,,,,,,,,,,,,,,,,,,,,,,,,,,,,sub-095799,001,2024-03-09_13h54.37.627,random_dot,2023.2.3,59.94600064274645,2024-03-09 13h54.42.301977 +0100,
left,left,accuracy,,,,,0,1,1,0,27,1,55,0,349.2572715999995,,,,,,,,,349.24168929999996,349.3407110999997,350.1413456999999,350.12498890000006,350.12500230000023,350.1413456999999,350.1413456999999,350.1413456999999,350.7406857999995,right,0,0.59710079999968,None,,,,,,,,,,,,,,,,,,,,,,,,,,,,,sub-095799,001,2024-03-09_13h54.37.627,random_dot,2023.2.3,59.94600064274645,2024-03-09 13h54.42.301977 +0100,
left,left,accuracy,,,,,0,1,1,0,28,0,56,0,350.75853240000015,,,,,,,,,350.7411889999994,350.84192900000016,351.6426428999994,351.6261005999995,351.6261118000002,351.6426428999994,351.6426428999994,351.6426428999994,352.8273349000001,left,1,1.175361900000098,None,,,,,,,,,,,,,,,,,,,,,,,,,,,,,sub-095799,001,2024-03-09_13h54.37.627,random_dot,2023.2.3,59.94600064274645,2024-03-09 13h54.42.301977 +0100,
right,right,speed,,,,,0,1,1,0,28,1,57,1,352.8436290999998,,,,,,,,,352.82787519999965,353.6442932,354.4449513999998,354.42856010000014,354.4285713999998,354.4449513999998,354.4449513999998,354.4449513999998,355.0458499999995,right,1,0.5970400999995036,None,,,,,,,,,,,,,,,,,,,,,,,,,,,,,sub-095799,001,2024-03-09_13h54.37.627,random_dot,2023.2.3,59.94600064274645,2024-03-09 13h54.42.301977 +0100,
right,right,speed,,,,,0,1,1,0,29,0,58,1,355.0621139999994,,,,,,,,,355.04634650000025,356.2613738,357.06208460000016,357.0473480999999,357.0473600999994,357.06208460000016,357.06208460000016,357.06208460000016,357.64806940000017,right,1,0.5718349999997372,None,,,,,,,,,,,,,,,,,,,,,,,,,,,,,sub-095799,001,2024-03-09_13h54.37.627,random_dot,2023.2.3,59.94600064274645,2024-03-09 13h54.42.301977 +0100,
left,left,accuracy,,,,,0,1,1,0,29,1,59,0,357.6625841999994,,,,,,,,,357.64858730000014,358.46326080000017,359.2655514999997,359.24745209999946,359.2474625999994,359.2655514999997,359.2655514999997,359.2655514999997,360.3654287999998,left,1,1.0883610999999291,None,,,,,,,,,,,,,,,,,,,,,,,,,,,,,sub-095799,001,2024-03-09_13h54.37.627,random_dot,2023.2.3,59.94600064274645,2024-03-09 13h54.42.301977 +0100,
left,left,accuracy,,,,,0,1,1,0,,,,,,,,,,,,,,,,,,,,,,,,,,,,,,,,,,,,,,,,,,,,,,,,,,,,,,,sub-095799,001,2024-03-09_13h54.37.627,random_dot,2023.2.3,59.94600064274645,2024-03-09 13h54.42.301977 +0100,
,,,,,,,,,,,,,,,,,,,,,,,,,,,,,,,,,,,,,,,,,,,,,,,,,,,,,,,,,,,,,,360.3658048999996,360.3830710000002,365.3706592999997,,,,,,,,
