direction,corrAns,practice_run_loop.thisRepN,practice_run_loop.thisTrialN,practice_run_loop.thisN,practice_run_loop.thisIndex,first_run_loop.thisRepN,first_run_loop.thisTrialN,first_run_loop.thisN,first_run_loop.thisIndex,second_run_loop.thisRepN,second_run_loop.thisTrialN,second_run_loop.thisN,second_run_loop.thisIndex,thisRow.t,notes,instruction.started,textInstr.started,respInstr.started,instruction.stopped,respInstr.keys,respInstr.rt,respInstr.duration,ITI.started,fixcross.started,fixcross.stopped,ITI.stopped,dots.started,backgroundDots.started,stimulusDots.started,respDots.started,dots.stopped,respDots.keys,respDots.corr,respDots.rt,respDots.duration,feedback.started,textFeedback.started,feedback.stopped,textFeedback.stopped,instruction_1.started,textInst1.started,respInstr1.started,instruction_1.stopped,respInstr1.keys,respInstr1.rt,respInstr1.duration,instruction_2.started,textInstr2.started,respInstr2.started,instruction_2.stopped,respInstr2.keys,respInstr2.rt,respInstr2.duration,stimulusDots.stopped,goodbye.started,goodbye_text.started,goodbye.stopped,participant,session,date,expName,psychopyVersion,frameRate,expStart,
,,,,,,,,,,,,,,,,0.034941399997478584,0.058260199999494944,0.058260199999494944,26.70090739999796,space,26.624810200002685,None,,,,,,,,,,,,,,,,,,,,,,,,,,,,,,,,,,,,sub-020665,001,2024-03-08_16h11.23.449,random_dot,2023.2.3,59.93328227017903,2024-03-08 16h11.27.547682 +0100,
left,left,0,0,0,0,,,,,,,,,26.713474699998187,,,,,,,,,26.705427199998667,27.06381649999821,27.86611339999945,27.84976309999911,27.84977539999818,27.86611339999945,27.86611339999945,27.86611339999945,29.0161483999982,right,0,1.144571700002416,None,29.016536199997063,29.032033899999078,29.51760049999939,,,,,,,,,,,,,,,,,,,,sub-020665,001,2024-03-08_16h11.23.449,random_dot,2023.2.3,59.93328227017903,2024-03-08 16h11.27.547682 +0100,
right,right,0,1,1,1,,,,,,,,,29.534164799999417,,,,,,,,,29.517808099997637,29.61761949999709,30.418213999997533,30.401755199996842,30.401768099996843,30.418213999997533,30.418213999997533,30.418213999997533,31.102773499998875,right,1,0.6724830000021029,None,31.103045799998654,31.117066099999647,31.60291479999796,31.619310599999153,,,,,,,,,,,,,,,,,,,sub-020665,001,2024-03-08_16h11.23.449,random_dot,2023.2.3,59.93328227017903,2024-03-08 16h11.27.547682 +0100,
left,left,1,0,2,0,,,,,,,,,31.619310599999153,,,,,,,,,31.603120799998578,32.80361300000004,33.602574299999105,33.58628939999835,33.586301899998944,33.602574299999105,33.602574299999105,33.602574299999105,34.35379759999705,right,0,0.7444396999999299,None,34.354064799998014,34.36984709999888,34.85412619999988,34.87029059999986,,,,,,,,,,,,,,,,,,,sub-020665,001,2024-03-08_16h11.23.449,random_dot,2023.2.3,59.93328227017903,2024-03-08 16h11.27.547682 +0100,
right,right,1,1,3,1,,,,,,,,,34.87029059999986,,,,,,,,,34.854327699998976,35.20390099999713,36.006096799999796,35.98972689999937,35.98973779999869,36.006096799999796,36.006096799999796,36.006096799999796,36.67235379999693,left,0,0.653018199998769,None,36.67260829999941,36.69014799999786,37.17388260000007,,,,,,,,,,,,,,,,,,,,sub-020665,001,2024-03-08_16h11.23.449,random_dot,2023.2.3,59.93328227017903,2024-03-08 16h11.27.547682 +0100,
left,left,2,0,4,0,,,,,,,,,37.190510299999005,,,,,,,,,37.17415719999917,37.974428999998054,38.77517109999826,38.75720299999739,38.757214599998406,38.77517109999826,38.77517109999826,38.77517109999826,39.42455859999973,right,0,0.6439780999971845,None,39.42483209999773,39.44060979999995,39.92474339999899,39.94270519999918,,,,,,,,,,,,,,,,,,,sub-020665,001,2024-03-08_16h11.23.449,random_dot,2023.2.3,59.93328227017903,2024-03-08 16h11.27.547682 +0100,
right,right,2,1,5,1,,,,,,,,,39.94270519999918,,,,,,,,,39.92496239999673,41.12707179999779,41.92772429999968,41.909704099998635,41.9097148999972,41.92772429999968,41.92772429999968,41.92772429999968,42.62720179999815,right,1,0.6911881000014546,None,42.62747679999666,42.64340369999991,43.12884959999792,,,,,,,,,,,,,,,,,,,,sub-020665,001,2024-03-08_16h11.23.449,random_dot,2023.2.3,59.93328227017903,2024-03-08 16h11.27.547682 +0100,
right,right,3,0,6,1,,,,,,,,,43.143795500000124,,,,,,,,,43.12906389999989,43.47744160000002,44.27801919999911,44.263210099998105,44.2632225999987,44.27801919999911,44.27801919999911,44.27801919999911,44.96238839999933,right,1,0.6703065000001516,None,44.96264549999978,44.97874849999789,45.464045999997325,,,,,,,,,,,,,,,,,,,,sub-020665,001,2024-03-08_16h11.23.449,random_dot,2023.2.3,59.93328227017903,2024-03-08 16h11.27.547682 +0100,
left,left,3,1,7,0,,,,,,,,,45.47919499999989,,,,,,,,,45.464281599997776,45.56405239999731,46.364664699998684,46.348604499999055,46.3486155999999,46.364664699998684,46.364664699998684,46.364664699998684,46.91567269999723,right,0,0.5357837000010477,None,46.91593859999921,46.93184990000009,47.415877499999624,47.43230169999879,,,,,,,,,,,,,,,,,,,sub-020665,001,2024-03-08_16h11.23.449,random_dot,2023.2.3,59.93328227017903,2024-03-08 16h11.27.547682 +0100,
left,left,4,0,8,0,,,,,,,,,47.43230169999879,,,,,,,,,47.41607539999677,48.214686999999685,49.01698239999678,49.00059259999762,49.00060449999728,49.01698239999678,49.01698239999678,49.01698239999678,49.83498129999862,left,1,0.8018148000010115,None,49.83526999999958,49.8493920999972,50.33528729999671,50.351411599996936,,,,,,,,,,,,,,,,,,,sub-020665,001,2024-03-08_16h11.23.449,random_dot,2023.2.3,59.93328227017903,2024-03-08 16h11.27.547682 +0100,
right,right,4,1,9,1,,,,,,,,,50.351411599996936,,,,,,,,,50.33549899999707,50.68510659999811,51.485807599998225,51.46919960000014,51.46921029999794,51.485807599998225,51.485807599998225,51.485807599998225,52.60371579999992,right,1,1.1096787999995286,None,52.6039912999986,52.6198758999999,53.10394289999749,53.120404999997845,,,,,,,,,,,,,,,,,,,sub-020665,001,2024-03-08_16h11.23.449,random_dot,2023.2.3,59.93328227017903,2024-03-08 16h11.27.547682 +0100,
right,right,5,0,10,1,,,,,,,,,53.120404999997845,,,,,,,,,53.104149799997685,53.904288599998836,54.70496329999878,54.68869999999879,54.68871139999828,54.70496329999878,54.70496329999878,54.70496329999878,55.28942420000021,left,0,0.5699017999977514,None,55.28968849999728,55.30378419999761,55.78954559999693,55.80589150000014,,,,,,,,,,,,,,,,,,,sub-020665,001,2024-03-08_16h11.23.449,random_dot,2023.2.3,59.93328227017903,2024-03-08 16h11.27.547682 +0100,
left,left,5,1,11,0,,,,,,,,,55.80589150000014,,,,,,,,,55.78974439999729,56.139476399999694,56.94015109999964,56.92368290000013,56.923692999997,56.94015109999964,56.94015109999964,56.94015109999964,57.82484249999834,left,1,0.8707354999969539,None,57.825102399998286,57.83916169999793,58.32345079999868,58.33972139999969,,,,,,,,,,,,,,,,,,,sub-020665,001,2024-03-08_16h11.23.449,random_dot,2023.2.3,59.93328227017903,2024-03-08 16h11.27.547682 +0100,
right,right,6,0,12,1,,,,,,,,,58.33972139999969,,,,,,,,,58.32367279999744,58.43974909999815,59.24036129999877,59.224081399999704,59.22409329999937,59.24036129999877,59.24036129999877,59.24036129999877,59.85827619999691,right,1,0.6105112999975972,None,59.858541499997955,59.87583899999663,60.37490479999906,,,,,,,,,,,,,,,,,,,,sub-020665,001,2024-03-08_16h11.23.449,random_dot,2023.2.3,59.93328227017903,2024-03-08 16h11.27.547682 +0100,
left,left,6,1,13,0,,,,,,,,,60.39164719999826,,,,,,,,,60.375142299999425,60.45817949999764,61.26033429999734,61.242574399999285,61.242586699998355,61.26033429999734,61.26033429999734,61.26033429999734,61.94324760000018,right,0,0.6792921000014758,None,61.94351429999733,61.96093800000017,62.444776999996975,,,,,,,,,,,,,,,,,,,,sub-020665,001,2024-03-08_16h11.23.449,random_dot,2023.2.3,59.93328227017903,2024-03-08 16h11.27.547682 +0100,
left,left,7,0,14,0,,,,,,,,,62.46143999999913,,,,,,,,,62.44497760000013,62.79509959999996,63.59573819999787,63.57923680000022,63.57924719999937,63.59573819999787,63.59573819999787,63.59573819999787,64.54705619999731,right,0,0.9350586000000476,None,64.54731669999819,64.56307849999939,65.0472523999997,65.06354259999716,,,,,,,,,,,,,,,,,,,sub-020665,001,2024-03-08_16h11.23.449,random_dot,2023.2.3,59.93328227017903,2024-03-08 16h11.27.547682 +0100,
right,right,7,1,15,1,,,,,,,,,65.06354259999716,,,,,,,,,65.04744969999956,66.24785509999856,67.048545499998,67.03207419999671,67.03208459999951,67.048545499998,67.048545499998,67.048545499998,67.74974079999811,right,1,0.699637799996708,None,67.7500043,67.76403789999677,68.24987409999812,68.2661902999971,,,,,,,,,,,,,,,,,,,sub-020665,001,2024-03-08_16h11.23.449,random_dot,2023.2.3,59.93328227017903,2024-03-08 16h11.27.547682 +0100,
left,left,8,0,16,0,,,,,,,,,68.2661902999971,,,,,,,,,68.25007229999756,68.61656349999976,69.41549619999932,69.40079709999918,69.40080919999673,69.41549619999932,69.41549619999932,69.41549619999932,70.03325969999787,left,1,0.6113970000005793,None,70.0335312999996,70.04946019999988,70.53471729999728,,,,,,,,,,,,,,,,,,,,sub-020665,001,2024-03-08_16h11.23.449,random_dot,2023.2.3,59.93328227017903,2024-03-08 16h11.27.547682 +0100,
right,right,8,1,17,1,,,,,,,,,70.54980239999713,,,,,,,,,70.53492489999917,71.33536529999765,72.13600640000004,72.11815909999859,72.11817149999843,72.13600640000004,72.13600640000004,72.13600640000004,72.7703748999993,right,1,0.6265547999973933,None,72.77066279999781,72.78664909999861,73.27062379999916,73.28708929999993,,,,,,,,,,,,,,,,,,,sub-020665,001,2024-03-08_16h11.23.449,random_dot,2023.2.3,59.93328227017903,2024-03-08 16h11.27.547682 +0100,
left,left,9,0,18,0,,,,,,,,,73.28708929999993,,,,,,,,,73.27082329999757,74.47130299999844,75.27197759999763,75.25559470000007,75.25560579999728,75.27197759999763,75.27197759999763,75.27197759999763,76.05662569999913,left,1,0.771054600001662,None,76.05688139999984,76.07264049999867,76.57311139999729,,,,,,,,,,,,,,,,,,,,sub-020665,001,2024-03-08_16h11.23.449,random_dot,2023.2.3,59.93328227017903,2024-03-08 16h11.27.547682 +0100,
right,right,9,1,19,1,,,,,,,,,76.58980079999674,,,,,,,,,76.5733239000001,77.35709809999753,78.15778469999714,78.14128809999966,78.14129959999991,78.15778469999714,78.15778469999714,78.15778469999714,78.7087509999983,right,1,0.5412594000008539,None,78.70903199999884,78.72327409999707,79.20887169999696,79.2257847999972,,,,,,,,,,,,,,,,,,,sub-020665,001,2024-03-08_16h11.23.449,random_dot,2023.2.3,59.93328227017903,2024-03-08 16h11.27.547682 +0100,
,,,,,,,,,,,,,,,,,,,,,,,,,,,,,,,,,,,,,,,,79.20891039999697,79.2257847999972,79.2257847999972,85.44759259999773,space,6.208736399999907,None,,,,,,,,,,,,sub-020665,001,2024-03-08_16h11.23.449,random_dot,2023.2.3,59.93328227017903,2024-03-08 16h11.27.547682 +0100,
left,left,,,,,0,0,0,0,,,,,85.46368919999804,,,,,,,,,85.45148369999879,85.54722529999708,86.3477619999976,86.33140979999735,86.33142009999938,86.3477619999976,86.3477619999976,86.3477619999976,87.24910189999719,right,0,0.8868521000003966,None,,,,,,,,,,,,,,,,,,,,,,,sub-020665,001,2024-03-08_16h11.23.449,random_dot,2023.2.3,59.93328227017903,2024-03-08 16h11.27.547682 +0100,
right,right,,,,,0,1,1,1,,,,,87.26518509999732,,,,,,,,,87.24975919999997,88.44962069999747,89.24861379999857,89.23234869999942,89.23236159999942,89.24861379999857,89.24861379999857,89.24861379999857,89.8679170999967,right,1,0.6034567999995488,None,,,,,,,,,,,,,,,,,,,,,,,sub-020665,001,2024-03-08_16h11.23.449,random_dot,2023.2.3,59.93328227017903,2024-03-08 16h11.27.547682 +0100,
left,left,,,,,1,0,2,0,,,,,89.88412129999779,,,,,,,,,89.8684336999977,91.0683597999996,91.86898149999979,91.85112359999766,91.85113549999733,91.86898149999979,91.86898149999979,91.86898149999979,92.68532570000025,left,1,0.8140410999985761,None,,,,,,,,,,,,,,,,,,,,,,,sub-020665,001,2024-03-08_16h11.23.449,random_dot,2023.2.3,59.93328227017903,2024-03-08 16h11.27.547682 +0100,
right,right,,,,,1,1,3,1,,,,,92.70306989999881,,,,,,,,,92.68582640000022,93.48710789999677,94.2877548999968,94.27141799999663,94.27142959999765,94.2877548999968,94.2877548999968,94.2877548999968,94.97212359999685,right,1,0.668220300001849,None,,,,,,,,,,,,,,,,,,,,,,,sub-020665,001,2024-03-08_16h11.23.449,random_dot,2023.2.3,59.93328227017903,2024-03-08 16h11.27.547682 +0100,
left,left,,,,,2,0,4,0,,,,,94.98675069999808,,,,,,,,,94.97269439999945,95.07181779999883,95.87233829999968,95.85599919999731,95.85601119999774,95.87233829999968,95.87233829999968,95.87233829999968,96.907161799998,right,0,1.019262699999672,None,,,,,,,,,,,,,,,,,,,,,,,sub-020665,001,2024-03-08_16h11.23.449,random_dot,2023.2.3,59.93328227017903,2024-03-08 16h11.27.547682 +0100,
right,right,,,,,2,1,5,1,,,,,96.9233467999984,,,,,,,,,96.9077615999995,98.10749519999808,98.90814809999938,98.89193759999762,98.8919481999983,98.90814809999938,98.90814809999938,98.90814809999938,99.44089729999905,right,1,0.5263343000005989,None,,,,,,,,,,,,,,,,,,,,,,,sub-020665,001,2024-03-08_16h11.23.449,random_dot,2023.2.3,59.93328227017903,2024-03-08 16h11.27.547682 +0100,
left,left,,,,,3,0,6,0,,,,,99.45873389999906,,,,,,,,,99.44145449999996,99.54060509999908,100.34270549999928,100.32478369999808,100.32479579999927,100.34270549999928,100.34270549999928,100.34270549999928,100.86032969999724,right,0,0.5082053000005544,None,,,,,,,,,,,,,,,,,,,,,,,sub-020665,001,2024-03-08_16h11.23.449,random_dot,2023.2.3,59.93328227017903,2024-03-08 16h11.27.547682 +0100,
right,right,,,,,3,1,7,1,,,,,100.87649739999688,,,,,,,,,100.86083409999992,101.21002139999837,102.01071539999975,101.99444999999832,101.9944626999968,102.01071539999975,102.01071539999975,102.01071539999975,102.59510589999991,right,1,0.5761373999994248,None,,,,,,,,,,,,,,,,,,,,,,,sub-020665,001,2024-03-08_16h11.23.449,random_dot,2023.2.3,59.93328227017903,2024-03-08 16h11.27.547682 +0100,
right,right,,,,,4,0,8,1,,,,,102.60966809999809,,,,,,,,,102.59576269999889,102.71138029999929,103.51198659999864,103.4955764999977,103.4955872999999,103.51198659999864,103.51198659999864,103.51198659999864,104.04478719999679,left,0,0.5313675999968837,None,,,,,,,,,,,,,,,,,,,,,,,sub-020665,001,2024-03-08_16h11.23.449,random_dot,2023.2.3,59.93328227017903,2024-03-08 16h11.27.547682 +0100,
left,left,,,,,4,1,9,0,,,,,104.06241729999965,,,,,,,,,104.04529129999719,104.1458492999991,104.94498399999793,104.93018489999668,104.93019669999921,104.94498399999793,104.94498399999793,104.94498399999793,106.22959909999918,right,0,1.2821693000005325,None,,,,,,,,,,,,,,,,,,,,,,,sub-020665,001,2024-03-08_16h11.23.449,random_dot,2023.2.3,59.93328227017903,2024-03-08 16h11.27.547682 +0100,
right,right,,,,,5,0,10,1,,,,,106.2459846999991,,,,,,,,,106.23013859999992,107.43187849999958,108.23257539999759,108.21466979999968,108.21468199999799,108.23257539999759,108.23257539999759,108.23257539999759,108.9003707999982,right,1,0.6659894000003987,None,,,,,,,,,,,,,,,,,,,,,,,sub-020665,001,2024-03-08_16h11.23.449,random_dot,2023.2.3,59.93328227017903,2024-03-08 16h11.27.547682 +0100,
left,left,,,,,5,1,11,0,,,,,108.91488709999976,,,,,,,,,108.90089329999682,109.25018809999892,110.06587479999871,110.0494953999987,110.04950669999744,110.06587479999871,110.06587479999871,110.06587479999871,111.30237569999736,left,1,1.2329921999989892,None,,,,,,,,,,,,,,,,,,,,,,,sub-020665,001,2024-03-08_16h11.23.449,random_dot,2023.2.3,59.93328227017903,2024-03-08 16h11.27.547682 +0100,
right,right,,,,,6,0,12,1,,,,,111.31851409999945,,,,,,,,,111.30302539999684,111.40186889999677,112.20246570000018,112.18615919999866,112.18616959999781,112.20246570000018,112.20246570000018,112.20246570000018,112.85206639999888,right,1,0.6406978000013623,None,,,,,,,,,,,,,,,,,,,,,,,sub-020665,001,2024-03-08_16h11.23.449,random_dot,2023.2.3,59.93328227017903,2024-03-08 16h11.27.547682 +0100,
left,left,,,,,6,1,13,0,,,,,112.86968989999878,,,,,,,,,112.85270179999861,113.20332879999842,114.00404029999845,113.98769089999769,113.98770279999735,114.00404029999845,114.00404029999845,114.00404029999845,114.6869743999996,right,0,0.6705194999995001,None,,,,,,,,,,,,,,,,,,,,,,,sub-020665,001,2024-03-08_16h11.23.449,random_dot,2023.2.3,59.93328227017903,2024-03-08 16h11.27.547682 +0100,
right,right,,,,,7,0,14,1,,,,,114.70465129999866,,,,,,,,,114.68748689999848,114.78804589999709,115.58869649999906,115.57224329999735,115.57225560000006,115.58869649999906,115.58869649999906,115.58869649999906,116.30476349999662,right,1,0.7028116000001319,None,,,,,,,,,,,,,,,,,,,,,,,sub-020665,001,2024-03-08_16h11.23.449,random_dot,2023.2.3,59.93328227017903,2024-03-08 16h11.27.547682 +0100,
left,left,,,,,7,1,15,0,,,,,116.32301489999736,,,,,,,,,116.30536909999864,117.10655699999916,117.90721729999859,117.89095909999742,117.89097059999767,117.90721729999859,117.90721729999859,117.90721729999859,118.45672409999679,left,1,0.535859800002072,None,,,,,,,,,,,,,,,,,,,,,,,sub-020665,001,2024-03-08_16h11.23.449,random_dot,2023.2.3,59.93328227017903,2024-03-08 16h11.27.547682 +0100,
left,left,,,,,8,0,16,0,,,,,118.47432519999711,,,,,,,,,118.45725859999948,119.65872649999801,120.47604080000019,120.45809739999822,120.45810929999789,120.47604080000019,120.47604080000019,120.47604080000019,122.6117282999985,left,1,2.1192587000005005,None,,,,,,,,,,,,,,,,,,,,,,,sub-020665,001,2024-03-08_16h11.23.449,random_dot,2023.2.3,59.93328227017903,2024-03-08 16h11.27.547682 +0100,
right,right,,,,,8,1,17,1,,,,,122.6277388999988,,,,,,,,,122.61223639999662,122.96139799999946,123.7620399999978,123.74574749999738,123.7457590999984,123.7620399999978,123.7620399999978,123.7620399999978,125.13042809999752,right,1,1.3606970000000729,None,,,,,,,,,,,,,,,,,,,,,,,sub-020665,001,2024-03-08_16h11.23.449,random_dot,2023.2.3,59.93328227017903,2024-03-08 16h11.27.547682 +0100,
left,left,,,,,9,0,18,0,,,,,125.14667879999979,,,,,,,,,125.13094199999978,126.33080209999753,127.13150229999883,127.11517639999875,127.11518759999672,127.13150229999883,127.13150229999883,127.13150229999883,128.24968739999895,left,1,1.103454399999464,None,,,,,,,,,,,,,,,,,,,,,,,sub-020665,001,2024-03-08_16h11.23.449,random_dot,2023.2.3,59.93328227017903,2024-03-08 16h11.27.547682 +0100,
right,right,,,,,9,1,19,1,,,,,128.26581589999842,,,,,,,,,128.25019459999749,129.04988409999714,129.85047639999902,129.83400719999918,129.8340191999996,129.85047639999902,129.85047639999902,129.85047639999902,130.8001912999971,right,1,0.9372800000019197,None,,,,,,,,,,,,,,,,,,,,,,,sub-020665,001,2024-03-08_16h11.23.449,random_dot,2023.2.3,59.93328227017903,2024-03-08 16h11.27.547682 +0100,
left,left,,,,,10,0,20,0,,,,,130.81794139999693,,,,,,,,,130.800736899997,130.90127039999788,131.7019825999996,131.6839852999983,131.68399679999857,131.7019825999996,131.7019825999996,131.7019825999996,132.551560099997,left,1,0.8372616000015114,None,,,,,,,,,,,,,,,,,,,,,,,sub-020665,001,2024-03-08_16h11.23.449,random_dot,2023.2.3,59.93328227017903,2024-03-08 16h11.27.547682 +0100,
right,right,,,,,10,1,21,1,,,,,132.56946569999855,,,,,,,,,132.5520727999974,132.65287739999985,133.45346509999945,133.4370252999979,133.4370358999986,133.45346509999945,133.45346509999945,133.45346509999945,134.13782499999797,right,1,0.6777902000030736,None,,,,,,,,,,,,,,,,,,,,,,,sub-020665,001,2024-03-08_16h11.23.449,random_dot,2023.2.3,59.93328227017903,2024-03-08 16h11.27.547682 +0100,
right,right,,,,,11,0,22,1,,,,,134.15403049999804,,,,,,,,,134.13833890000024,134.23734629999672,135.03801779999776,135.02011519999724,135.02012979999927,135.03801779999776,135.03801779999776,135.03801779999776,139.30884989999686,right,1,4.268715300000622,None,,,,,,,,,,,,,,,,,,,,,,,sub-020665,001,2024-03-08_16h11.23.449,random_dot,2023.2.3,59.93328227017903,2024-03-08 16h11.27.547682 +0100,
left,left,,,,,11,1,23,0,,,,,139.32328399999824,,,,,,,,,139.30939789999684,140.10729809999975,140.90960730000006,140.89334029999736,140.8933524999993,140.90960730000006,140.90960730000006,140.90960730000006,141.9108613999997,left,1,0.9893172000010964,None,,,,,,,,,,,,,,,,,,,,,,,sub-020665,001,2024-03-08_16h11.23.449,random_dot,2023.2.3,59.93328227017903,2024-03-08 16h11.27.547682 +0100,
left,left,,,,,12,0,24,0,,,,,141.92714909999995,,,,,,,,,141.9113722999973,142.01052899999922,142.81115579999823,142.7948612,142.79487289999815,142.81115579999823,142.81115579999823,142.81115579999823,143.74581129999933,right,0,0.9201723000005586,None,,,,,,,,,,,,,,,,,,,,,,,sub-020665,001,2024-03-08_16h11.23.449,random_dot,2023.2.3,59.93328227017903,2024-03-08 16h11.27.547682 +0100,
right,right,,,,,12,1,25,1,,,,,143.76200569999855,,,,,,,,,143.74631859999863,144.54589999999735,145.34654419999788,145.33031269999992,145.33032489999823,145.34654419999788,145.34654419999788,145.34654419999788,146.56484199999977,right,1,1.2083191999990959,None,,,,,,,,,,,,,,,,,,,,,,,sub-020665,001,2024-03-08_16h11.23.449,random_dot,2023.2.3,59.93328227017903,2024-03-08 16h11.27.547682 +0100,
right,right,,,,,13,0,26,1,,,,,146.58103539999865,,,,,,,,,146.5653551999967,146.9146643999993,147.713552899997,147.69884099999763,147.69885409999915,147.713552899997,147.713552899997,147.713552899997,148.4980852999979,right,1,0.7700474999983271,None,,,,,,,,,,,,,,,,,,,,,,,sub-020665,001,2024-03-08_16h11.23.449,random_dot,2023.2.3,59.93328227017903,2024-03-08 16h11.27.547682 +0100,
left,left,,,,,13,1,27,0,,,,,148.51595629999792,,,,,,,,,148.4986162999994,149.70016219999889,150.49917039999855,150.48296349999873,150.48297549999916,150.49917039999855,150.49917039999855,150.49917039999855,151.13372269999672,right,0,0.6323264999991807,None,,,,,,,,,,,,,,,,,,,,,,,sub-020665,001,2024-03-08_16h11.23.449,random_dot,2023.2.3,59.93328227017903,2024-03-08 16h11.27.547682 +0100,
right,right,,,,,14,0,28,1,,,,,151.15143069999976,,,,,,,,,151.1342599999989,151.48332539999683,152.2856791999984,152.26928289999705,152.2692954999984,152.2856791999984,152.2856791999984,152.2856791999984,152.86997679999695,right,1,0.5739049000003433,None,,,,,,,,,,,,,,,,,,,,,,,sub-020665,001,2024-03-08_16h11.23.449,random_dot,2023.2.3,59.93328227017903,2024-03-08 16h11.27.547682 +0100,
left,left,,,,,14,1,29,0,,,,,152.88628509999762,,,,,,,,,152.87063849999686,154.07049699999698,154.871053699997,154.85489979999693,154.85491059999913,154.871053699997,154.871053699997,154.871053699997,155.97272099999827,left,1,1.0922313000010035,None,,,,,,,,,,,,,,,,,,,,,,,sub-020665,001,2024-03-08_16h11.23.449,random_dot,2023.2.3,59.93328227017903,2024-03-08 16h11.27.547682 +0100,
right,right,,,,,15,0,30,1,,,,,155.98882439999943,,,,,,,,,155.9732428999996,156.32231619999948,157.1229891999974,157.1066439999995,157.1066581999985,157.1229891999974,157.1229891999974,157.1229891999974,157.7573142000001,right,1,0.6317516999988584,None,,,,,,,,,,,,,,,,,,,,,,,sub-020665,001,2024-03-08_16h11.23.449,random_dot,2023.2.3,59.93328227017903,2024-03-08 16h11.27.547682 +0100,
left,left,,,,,15,1,31,0,,,,,157.77350499999739,,,,,,,,,157.75782139999865,158.55759599999874,159.35813829999825,159.3419004999996,159.34191259999716,159.35813829999825,159.35813829999825,159.35813829999825,160.04097529999854,left,1,0.6771205999975791,None,,,,,,,,,,,,,,,,,,,,,,,sub-020665,001,2024-03-08_16h11.23.449,random_dot,2023.2.3,59.93328227017903,2024-03-08 16h11.27.547682 +0100,
left,left,,,,,16,0,32,0,,,,,160.05716069999835,,,,,,,,,160.04149789999792,160.39078679999875,161.19135469999674,161.17655939999895,161.17657150000014,161.19135469999674,161.19135469999674,161.19135469999674,162.76175059999878,left,1,1.5550375999991957,None,,,,,,,,,,,,,,,,,,,,,,,sub-020665,001,2024-03-08_16h11.23.449,random_dot,2023.2.3,59.93328227017903,2024-03-08 16h11.27.547682 +0100,
right,right,,,,,16,1,33,1,,,,,162.77762799999982,,,,,,,,,162.76227609999842,163.11138070000015,163.91199679999772,163.89560429999983,163.89561639999738,163.91199679999772,163.91199679999772,163.91199679999772,164.56163670000024,right,1,0.6426071999994747,None,,,,,,,,,,,,,,,,,,,,,,,sub-020665,001,2024-03-08_16h11.23.449,random_dot,2023.2.3,59.93328227017903,2024-03-08 16h11.27.547682 +0100,
right,right,,,,,17,0,34,1,,,,,164.57922959999996,,,,,,,,,164.56220819999726,164.91288910000003,165.71355159999803,165.6969680000002,165.696978699998,165.71355159999803,165.71355159999803,165.71355159999803,167.3486972999999,right,1,1.633484399997542,None,,,,,,,,,,,,,,,,,,,,,,,sub-020665,001,2024-03-08_16h11.23.449,random_dot,2023.2.3,59.93328227017903,2024-03-08 16h11.27.547682 +0100,
left,left,,,,,17,1,35,0,,,,,167.36477699999887,,,,,,,,,167.34921439999744,167.71504209999694,168.51580169999943,168.4993938999978,168.4994044999985,168.51580169999943,168.51580169999943,168.51580169999943,170.03245909999896,right,0,1.503498899997794,None,,,,,,,,,,,,,,,,,,,,,,,sub-020665,001,2024-03-08_16h11.23.449,random_dot,2023.2.3,59.93328227017903,2024-03-08 16h11.27.547682 +0100,
right,right,,,,,18,0,36,1,,,,,170.0489127999972,,,,,,,,,170.03311459999895,171.23459359999833,172.03525749999972,172.0173266999991,172.01733879999665,172.03525749999972,172.03525749999972,172.03525749999972,172.65315089999785,right,1,0.6164820000012696,None,,,,,,,,,,,,,,,,,,,,,,,sub-020665,001,2024-03-08_16h11.23.449,random_dot,2023.2.3,59.93328227017903,2024-03-08 16h11.27.547682 +0100,
left,left,,,,,18,1,37,0,,,,,172.6693536999992,,,,,,,,,172.65365629999724,173.45325109999976,174.25386159999834,174.2374122000001,174.23742270000002,174.25386159999834,174.25386159999834,174.25386159999834,175.22183799999766,left,1,0.9570103000005474,None,,,,,,,,,,,,,,,,,,,,,,,sub-020665,001,2024-03-08_16h11.23.449,random_dot,2023.2.3,59.93328227017903,2024-03-08 16h11.27.547682 +0100,
left,left,,,,,19,0,38,0,,,,,175.2379437999989,,,,,,,,,175.22234319999916,176.02047449999736,176.82266849999723,176.8063336999985,176.8063461999991,176.82266849999723,176.82266849999723,176.82266849999723,177.5238212999975,right,0,0.6843909999988682,None,,,,,,,,,,,,,,,,,,,,,,,sub-020665,001,2024-03-08_16h11.23.449,random_dot,2023.2.3,59.93328227017903,2024-03-08 16h11.27.547682 +0100,
right,right,,,,,19,1,39,1,,,,,177.539839699999,,,,,,,,,177.52435349999723,177.87349469999754,178.67415329999858,178.65776449999976,178.65777519999756,178.67415329999858,178.67415329999858,178.67415329999858,179.5405847999973,right,1,0.8564899000011792,None,,,,,,,,,,,,,,,,,,,,,,,sub-020665,001,2024-03-08_16h11.23.449,random_dot,2023.2.3,59.93328227017903,2024-03-08 16h11.27.547682 +0100,
left,left,,,,,20,0,40,0,,,,,179.55670479999753,,,,,,,,,179.54120359999797,180.3421054999999,181.14117219999753,181.12504719999924,181.12505899999815,181.14117219999753,181.14117219999753,181.14117219999753,181.77559269999983,right,0,0.6214971000008518,None,,,,,,,,,,,,,,,,,,,,,,,sub-020665,001,2024-03-08_16h11.23.449,random_dot,2023.2.3,59.93328227017903,2024-03-08 16h11.27.547682 +0100,
right,right,,,,,20,1,41,1,,,,,181.79187169999932,,,,,,,,,181.77609699999812,182.5773726999978,183.37799610000002,183.36165110000002,183.3616621000001,183.37799610000002,183.37799610000002,183.37799610000002,183.99592329999723,right,1,0.6168760000000475,None,,,,,,,,,,,,,,,,,,,,,,,sub-020665,001,2024-03-08_16h11.23.449,random_dot,2023.2.3,59.93328227017903,2024-03-08 16h11.27.547682 +0100,
left,left,,,,,21,0,42,0,,,,,184.0120958999978,,,,,,,,,183.9964473,185.19617689999723,185.9969252999981,185.98047049999877,185.9804813999981,185.9969252999981,185.9969252999981,185.9969252999981,187.51549919999889,left,1,1.5019635999997263,None,,,,,,,,,,,,,,,,,,,,,,,sub-020665,001,2024-03-08_16h11.23.449,random_dot,2023.2.3,59.93328227017903,2024-03-08 16h11.27.547682 +0100,
right,right,,,,,21,1,43,1,,,,,187.53142769999977,,,,,,,,,187.51600649999818,188.31547819999832,189.1161351999981,189.10009779999746,189.10011029999805,189.1161351999981,189.1161351999981,189.1161351999981,189.73399289999725,right,1,0.6146794999986014,None,,,,,,,,,,,,,,,,,,,,,,,sub-020665,001,2024-03-08_16h11.23.449,random_dot,2023.2.3,59.93328227017903,2024-03-08 16h11.27.547682 +0100,
left,left,,,,,22,0,44,0,,,,,189.7501009999978,,,,,,,,,189.73451879999993,189.83336289999716,190.63236889999826,190.61764299999777,190.61765399999786,190.63236889999826,190.63236889999826,190.63236889999826,191.2500739999996,right,0,0.6025005000010424,None,,,,,,,,,,,,,,,,,,,,,,,sub-020665,001,2024-03-08_16h11.23.449,random_dot,2023.2.3,59.93328227017903,2024-03-08 16h11.27.547682 +0100,
right,right,,,,,22,1,45,1,,,,,191.2678780999995,,,,,,,,,191.25057240000024,191.3497024999997,192.1503159999993,192.1355893,192.13560129999678,192.1503159999993,192.1503159999993,192.1503159999993,192.80138609999995,right,1,0.644048300000577,None,,,,,,,,,,,,,,,,,,,,,,,sub-020665,001,2024-03-08_16h11.23.449,random_dot,2023.2.3,59.93328227017903,2024-03-08 16h11.27.547682 +0100,
right,right,,,,,23,0,46,1,,,,,192.8192554999987,,,,,,,,,192.80191489999925,193.15116419999686,193.95338439999978,193.93719679999776,193.9372087999982,193.95338439999978,193.95338439999978,193.95338439999978,194.5362118999983,right,1,0.5689244999994116,None,,,,,,,,,,,,,,,,,,,,,,,sub-020665,001,2024-03-08_16h11.23.449,random_dot,2023.2.3,59.93328227017903,2024-03-08 16h11.27.547682 +0100,
left,left,,,,,23,1,47,0,,,,,194.55418689999715,,,,,,,,,194.5367652999994,195.33800979999796,196.1386145999968,196.1206671,196.1206796999977,196.1386145999968,196.1386145999968,196.1386145999968,196.63792939999985,right,0,0.4960215999999491,None,,,,,,,,,,,,,,,,,,,,,,,sub-020665,001,2024-03-08_16h11.23.449,random_dot,2023.2.3,59.93328227017903,2024-03-08 16h11.27.547682 +0100,
left,left,,,,,24,0,48,0,,,,,196.65563289999773,,,,,,,,,196.63845749999746,196.98933619999661,197.79004449999775,197.77350359999764,197.77351439999984,197.79004449999775,197.79004449999775,197.79004449999775,198.4744823999972,right,0,0.6690826999983983,None,,,,,,,,,,,,,,,,,,,,,,,sub-020665,001,2024-03-08_16h11.23.449,random_dot,2023.2.3,59.93328227017903,2024-03-08 16h11.27.547682 +0100,
right,right,,,,,24,1,49,1,,,,,198.49058890000015,,,,,,,,,198.4751557999989,199.274512699998,200.07515109999804,200.0587921999977,200.0588033999993,200.07515109999804,200.07515109999804,200.07515109999804,200.79146219999893,right,1,0.7113789000031829,None,,,,,,,,,,,,,,,,,,,,,,,sub-020665,001,2024-03-08_16h11.23.449,random_dot,2023.2.3,59.93328227017903,2024-03-08 16h11.27.547682 +0100,
left,left,,,,,25,0,50,0,,,,,200.8090330999985,,,,,,,,,200.79200969999874,201.59323839999706,202.39376439999978,202.37735969999994,202.37737029999698,202.39376439999978,202.39376439999978,202.39376439999978,203.57702040000004,left,1,1.1765309000002162,None,,,,,,,,,,,,,,,,,,,,,,,sub-020665,001,2024-03-08_16h11.23.449,random_dot,2023.2.3,59.93328227017903,2024-03-08 16h11.27.547682 +0100,
right,right,,,,,25,1,51,1,,,,,203.5947524999974,,,,,,,,,203.5775407000001,204.3788504999975,205.17947549999735,205.16305069999726,205.1630624999998,205.17947549999735,205.17947549999735,205.17947549999735,206.0808975,right,1,0.8876157999984571,None,,,,,,,,,,,,,,,,,,,,,,,sub-020665,001,2024-03-08_16h11.23.449,random_dot,2023.2.3,59.93328227017903,2024-03-08 16h11.27.547682 +0100,
left,left,,,,,26,0,52,0,,,,,206.0968243999996,,,,,,,,,206.08141539999997,206.18031599999813,206.97923850000006,206.96321319999697,206.96322650000002,206.97923850000006,206.97923850000006,206.97923850000006,208.3492996999994,left,1,1.3596333999994386,None,,,,,,,,,,,,,,,,,,,,,,,sub-020665,001,2024-03-08_16h11.23.449,random_dot,2023.2.3,59.93328227017903,2024-03-08 16h11.27.547682 +0100,
right,right,,,,,26,1,53,1,,,,,208.3653149999991,,,,,,,,,208.3498060999991,208.4488728999968,209.24954759999673,209.23300239999662,209.2330144999978,209.24954759999673,209.24954759999673,209.24954759999673,210.93311600000015,right,1,1.673541899999691,None,,,,,,,,,,,,,,,,,,,,,,,sub-020665,001,2024-03-08_16h11.23.449,random_dot,2023.2.3,59.93328227017903,2024-03-08 16h11.27.547682 +0100,
right,right,,,,,27,0,54,1,,,,,210.95083989999694,,,,,,,,,210.93379619999905,211.73478049999903,212.53546920000008,212.51911479999762,212.51912629999788,212.53546920000008,212.53546920000008,212.53546920000008,213.43675579999763,right,1,0.8993354999984149,None,,,,,,,,,,,,,,,,,,,,,,,sub-020665,001,2024-03-08_16h11.23.449,random_dot,2023.2.3,59.93328227017903,2024-03-08 16h11.27.547682 +0100,
left,left,,,,,27,1,55,0,,,,,213.45310160000008,,,,,,,,,213.43727579999904,214.23686129999987,215.03754649999973,215.0210582999971,215.02106899999853,215.03754649999973,215.03754649999973,215.03754649999973,217.75541789999988,right,0,2.709642599998915,None,,,,,,,,,,,,,,,,,,,,,,,sub-020665,001,2024-03-08_16h11.23.449,random_dot,2023.2.3,59.93328227017903,2024-03-08 16h11.27.547682 +0100,
left,left,,,,,28,0,56,0,,,,,217.77313089999734,,,,,,,,,217.7559188999985,218.1067895999986,218.90735559999666,218.89098599999852,218.89099649999844,218.90735559999666,218.90735559999666,218.90735559999666,219.89213919999747,left,1,0.9678557999977784,None,,,,,,,,,,,,,,,,,,,,,,,sub-020665,001,2024-03-08_16h11.23.449,random_dot,2023.2.3,59.93328227017903,2024-03-08 16h11.27.547682 +0100,
right,right,,,,,28,1,57,1,,,,,219.90823719999753,,,,,,,,,219.8926440999967,220.24184199999945,221.04078039999877,221.02458969999861,221.02460169999904,221.04078039999877,221.04078039999877,221.04078039999877,221.7102485999967,right,1,0.6654959000006784,None,,,,,,,,,,,,,,,,,,,,,,,sub-020665,001,2024-03-08_16h11.23.449,random_dot,2023.2.3,59.93328227017903,2024-03-08 16h11.27.547682 +0100,
left,left,,,,,29,0,58,0,,,,,221.72643129999778,,,,,,,,,221.71076579999863,222.05849829999715,222.860686,222.84441859999788,222.8444294999972,222.860686,222.860686,222.860686,223.84538659999816,right,0,0.9831273999989207,None,,,,,,,,,,,,,,,,,,,,,,,sub-020665,001,2024-03-08_16h11.23.449,random_dot,2023.2.3,59.93328227017903,2024-03-08 16h11.27.547682 +0100,
right,right,,,,,29,1,59,1,,,,,223.86155679999865,,,,,,,,,223.84589629999755,225.0458147999998,225.84659949999696,225.83006989999922,225.83008069999778,225.84659949999696,225.84659949999696,225.84659949999696,226.57964979999815,right,1,0.7241702999999688,None,,,,,,,,,,,,,,,,,,,,,,,sub-020665,001,2024-03-08_16h11.23.449,random_dot,2023.2.3,59.93328227017903,2024-03-08 16h11.27.547682 +0100,
,,,,,,,,,,,,,,,,,,,,,,,,,,,,,,,,,,,,,,,,,,,,,,,226.58007029999862,226.59540109999944,226.59540109999944,233.6685340999975,space,7.062978300000395,None,,,,,sub-020665,001,2024-03-08_16h11.23.449,random_dot,2023.2.3,59.93328227017903,2024-03-08 16h11.27.547682 +0100,
right,right,,,,,,,,,0,0,0,1,233.68472289999772,,,,,,,,,233.67286519999834,234.47027719999824,235.27090739999767,235.25452279999809,235.254533299998,235.27090739999767,235.27090739999767,235.27090739999767,236.0220988000001,right,1,0.7476841999996395,None,,,,,,,,,,,,,,,,,,,,,,,sub-020665,001,2024-03-08_16h11.23.449,random_dot,2023.2.3,59.93328227017903,2024-03-08 16h11.27.547682 +0100,
left,left,,,,,,,,,0,1,1,0,236.03826499999923,,,,,,,,,236.02275339999687,237.2225851999974,238.02165029999742,238.0068300999992,238.00684199999887,238.02165029999742,238.02165029999742,238.02165029999742,238.8061095999983,left,1,0.7733599000021059,None,,,,,,,,,,,,,,,,,,,,,,,sub-020665,001,2024-03-08_16h11.23.449,random_dot,2023.2.3,59.93328227017903,2024-03-08 16h11.27.547682 +0100,
right,right,,,,,,,,,1,0,2,1,238.82394729999942,,,,,,,,,238.80674329999965,239.6078407999994,240.40849569999773,240.3921156999968,240.39212639999823,240.40849569999773,240.40849569999773,240.40849569999773,241.20790399999896,right,1,0.7946609999999055,None,,,,,,,,,,,,,,,,,,,,,,,sub-020665,001,2024-03-08_16h11.23.449,random_dot,2023.2.3,59.93328227017903,2024-03-08 16h11.27.547682 +0100,
left,left,,,,,,,,,1,1,3,0,241.22599399999672,,,,,,,,,241.20845669999835,241.30945439999778,242.12661200000002,242.11027829999875,242.1102899999969,242.12661200000002,242.12661200000002,242.12661200000002,246.4473141999988,left,1,4.31563610000012,None,,,,,,,,,,,,,,,,,,,,,,,sub-020665,001,2024-03-08_16h11.23.449,random_dot,2023.2.3,59.93328227017903,2024-03-08 16h11.27.547682 +0100,
left,left,,,,,,,,,2,0,4,0,246.46361169999727,,,,,,,,,246.4478253999987,246.5469572999973,247.34760339999775,247.331226899998,247.3312382999975,247.34760339999775,247.34760339999775,247.34760339999775,250.1656116999984,right,0,2.8066291000031924,None,,,,,,,,,,,,,,,,,,,,,,,sub-020665,001,2024-03-08_16h11.23.449,random_dot,2023.2.3,59.93328227017903,2024-03-08 16h11.27.547682 +0100,
right,right,,,,,,,,,2,1,5,1,250.18336869999985,,,,,,,,,250.16613289999805,250.51685559999896,251.31752429999688,251.3011845999972,251.30119659999764,251.31752429999688,251.31752429999688,251.31752429999688,253.1028587999972,right,1,1.7738998999993782,None,,,,,,,,,,,,,,,,,,,,,,,sub-020665,001,2024-03-08_16h11.23.449,random_dot,2023.2.3,59.93328227017903,2024-03-08 16h11.27.547682 +0100,
right,right,,,,,,,,,3,0,6,1,253.11916359999668,,,,,,,,,253.1035314999972,253.45268149999902,254.25166699999681,254.23544109999784,254.23545289999674,254.25166699999681,254.25166699999681,254.25166699999681,255.52010909999808,right,1,1.255357299996831,None,,,,,,,,,,,,,,,,,,,,,,,sub-020665,001,2024-03-08_16h11.23.449,random_dot,2023.2.3,59.93328227017903,2024-03-08 16h11.27.547682 +0100,
left,left,,,,,,,,,3,1,7,0,255.53767549999975,,,,,,,,,255.52070519999688,255.87127489999693,256.6719194999969,256.6539696999971,256.65398159999677,256.6719194999969,256.6719194999969,256.6719194999969,257.6051288999988,left,1,0.9304551999994146,None,,,,,,,,,,,,,,,,,,,,,,,sub-020665,001,2024-03-08_16h11.23.449,random_dot,2023.2.3,59.93328227017903,2024-03-08 16h11.27.547682 +0100,
right,right,,,,,,,,,4,0,8,1,257.62283339999703,,,,,,,,,257.6056863999984,258.40675199999896,259.2074025999973,259.1910750999996,259.1910889999999,259.2074025999973,259.2074025999973,259.2074025999973,259.82508229999803,right,1,0.6041345999983605,None,,,,,,,,,,,,,,,,,,,,,,,sub-020665,001,2024-03-08_16h11.23.449,random_dot,2023.2.3,59.93328227017903,2024-03-08 16h11.27.547682 +0100,
left,left,,,,,,,,,4,1,9,0,259.84130019999793,,,,,,,,,259.8255930999985,259.92484489999697,260.7419732999988,260.72570669999914,260.7257185999988,260.7419732999988,260.7419732999988,260.7419732999988,262.21046679999927,left,1,1.4526764000002004,None,,,,,,,,,,,,,,,,,,,,,,,sub-020665,001,2024-03-08_16h11.23.449,random_dot,2023.2.3,59.93328227017903,2024-03-08 16h11.27.547682 +0100,
left,left,,,,,,,,,5,0,10,0,262.2265744999968,,,,,,,,,262.21103049999874,263.4108156000002,264.2116070999982,264.1951018,264.19511379999676,264.2116070999982,264.2116070999982,264.2116070999982,269.9168144999967,right,0,5.6960014999967825,None,,,,,,,,,,,,,,,,,,,269.19898359999934,,,,sub-020665,001,2024-03-08_16h11.23.449,random_dot,2023.2.3,59.93328227017903,2024-03-08 16h11.27.547682 +0100,
right,right,,,,,,,,,5,1,11,1,269.9330061999972,,,,,,,,,269.9173215999981,270.0148438999968,270.8154412999975,270.7992818999992,270.7992946999984,270.8154412999975,270.8154412999975,270.8154412999975,271.85021979999874,left,0,1.0270042999982252,None,,,,,,,,,,,,,,,,,,,,,,,sub-020665,001,2024-03-08_16h11.23.449,random_dot,2023.2.3,59.93328227017903,2024-03-08 16h11.27.547682 +0100,
right,right,,,,,,,,,6,0,12,1,271.86622499999794,,,,,,,,,271.85080769999695,272.20145069999853,273.0021732999994,272.98427359999914,272.9842854999988,273.0021732999994,273.0021732999994,273.0021732999994,273.90171819999887,right,1,0.8898399999998219,None,,,,,,,,,,,,,,,,,,,,,,,sub-020665,001,2024-03-08_16h11.23.449,random_dot,2023.2.3,59.93328227017903,2024-03-08 16h11.27.547682 +0100,
left,left,,,,,,,,,6,1,13,0,273.91967809999915,,,,,,,,,273.9022516999976,274.00293469999815,274.8018955999978,274.78736339999887,274.7873753999993,274.8018955999978,274.8018955999978,274.8018955999978,276.588943499999,left,1,1.7769575999991503,None,,,,,,,,,,,,,,,,,,,,,,,sub-020665,001,2024-03-08_16h11.23.449,random_dot,2023.2.3,59.93328227017903,2024-03-08 16h11.27.547682 +0100,
left,left,,,,,,,,,7,0,14,0,276.6050684999973,,,,,,,,,276.58943969999746,276.9387938999971,277.73935679999704,277.72304959999747,277.7230600999974,277.73935679999704,277.73935679999704,277.73935679999704,279.9752058999984,right,0,2.230832300003385,None,,,,,,,,,,,,,,,,,,,,,,,sub-020665,001,2024-03-08_16h11.23.449,random_dot,2023.2.3,59.93328227017903,2024-03-08 16h11.27.547682 +0100,
right,right,,,,,,,,,7,1,15,1,279.99128329999803,,,,,,,,,279.9757737,281.1739058999992,281.97622149999734,281.95823799999926,281.9582500999968,281.97622149999734,281.97622149999734,281.97622149999734,282.65926449999824,right,1,0.6675087000003259,None,,,,,,,,,,,,,,,,,,,,,,,sub-020665,001,2024-03-08_16h11.23.449,random_dot,2023.2.3,59.93328227017903,2024-03-08 16h11.27.547682 +0100,
left,left,,,,,,,,,8,0,16,0,282.67679759999737,,,,,,,,,282.65975830000025,282.7768974999999,283.57755259999976,283.56111469999814,283.5611252999988,283.57755259999976,283.57755259999976,283.57755259999976,284.9776301999991,right,0,1.3854021999977704,None,,,,,,,,,,,,,,,,,,,,,,,sub-020665,001,2024-03-08_16h11.23.449,random_dot,2023.2.3,59.93328227017903,2024-03-08 16h11.27.547682 +0100,
right,right,,,,,,,,,8,1,17,1,284.99541189999945,,,,,,,,,284.9781574999979,286.17973039999924,286.9804568999971,286.96399759999986,286.964009299998,286.9804568999971,286.9804568999971,286.9804568999971,287.69826549999925,right,1,0.7098487000002933,None,,,,,,,,,,,,,,,,,,,,,,,sub-020665,001,2024-03-08_16h11.23.449,random_dot,2023.2.3,59.93328227017903,2024-03-08 16h11.27.547682 +0100,
right,right,,,,,,,,,9,0,18,1,287.7144109999972,,,,,,,,,287.69878309999694,288.04792669999733,288.8471935999987,288.83218169999964,288.83219259999896,288.8471935999987,288.8471935999987,288.8471935999987,289.88178109999717,right,1,1.0201923999993596,None,,,,,,,,,,,,,,,,,,,,,,,sub-020665,001,2024-03-08_16h11.23.449,random_dot,2023.2.3,59.93328227017903,2024-03-08 16h11.27.547682 +0100,
left,left,,,,,,,,,9,1,19,0,289.8995260999982,,,,,,,,,289.88228869999875,289.9828800999967,290.7835109999978,290.76706019999983,290.7670707999969,290.7835109999978,290.7835109999978,290.7835109999978,293.30293059999894,right,0,2.507314499998756,None,,,,,,,,,,,,,,,,,,,,,,,sub-020665,001,2024-03-08_16h11.23.449,random_dot,2023.2.3,59.93328227017903,2024-03-08 16h11.27.547682 +0100,
right,right,,,,,,,,,10,0,20,1,293.31900269999824,,,,,,,,,293.3034512999984,293.4023043999987,294.2029836999973,294.1867461999973,294.18675839999923,294.2029836999973,294.2029836999973,294.2029836999973,295.8702653,right,1,1.6553789999998116,None,,,,,,,,,,,,,,,,,,,,,,,sub-020665,001,2024-03-08_16h11.23.449,random_dot,2023.2.3,59.93328227017903,2024-03-08 16h11.27.547682 +0100,
left,left,,,,,,,,,10,1,21,0,295.8878174999991,,,,,,,,,295.8708237999999,296.6716704999999,297.47231519999696,297.45601129999704,297.4560223999979,297.47231519999696,297.47231519999696,297.47231519999696,304.96272379999937,right,0,7.474892700000055,None,,,,,,,,,,,,,,,,,,,302.4581823999979,,,,sub-020665,001,2024-03-08_16h11.23.449,random_dot,2023.2.3,59.93328227017903,2024-03-08 16h11.27.547682 +0100,
left,left,,,,,,,,,11,0,22,0,304.97868649999873,,,,,,,,,304.9632454999992,305.31213379999826,306.1112241999981,306.09655369999746,306.0965660999973,306.1112241999981,306.1112241999981,306.1112241999981,306.5470957999969,right,0,0.4196962000023632,None,,,,,,,,,,,,,,,,,,,,,,,sub-020665,001,2024-03-08_16h11.23.449,random_dot,2023.2.3,59.93328227017903,2024-03-08 16h11.27.547682 +0100,
right,right,,,,,,,,,11,1,23,1,306.56316349999906,,,,,,,,,306.5475925999999,307.34726450000016,308.1629297999971,308.14827700000023,308.14828919999854,308.1629297999971,308.1629297999971,308.1629297999971,308.8324560999972,right,1,0.6557955999996921,None,,,,,,,,,,,,,,,,,,,,,,,sub-020665,001,2024-03-08_16h11.23.449,random_dot,2023.2.3,59.93328227017903,2024-03-08 16h11.27.547682 +0100,
right,right,,,,,,,,,12,0,24,1,308.84859399999914,,,,,,,,,308.83297259999745,308.93181149999873,309.73249309999665,309.71611119999943,309.71612189999723,309.73249309999665,309.73249309999665,309.73249309999665,310.90076359999875,right,1,1.1509119000002102,None,,,,,,,,,,,,,,,,,,,,,,,sub-020665,001,2024-03-08_16h11.23.449,random_dot,2023.2.3,59.93328227017903,2024-03-08 16h11.27.547682 +0100,
left,left,,,,,,,,,12,1,25,0,310.9152897999993,,,,,,,,,310.90127719999873,311.71756579999783,312.51809929999945,312.5017719999996,312.5017827999982,312.51809929999945,312.51809929999945,312.51809929999945,313.28595080000014,right,0,0.7640504000009969,None,,,,,,,,,,,,,,,,,,,,,,,sub-020665,001,2024-03-08_16h11.23.449,random_dot,2023.2.3,59.93328227017903,2024-03-08 16h11.27.547682 +0100,
left,left,,,,,,,,,13,0,26,0,313.30218559999776,,,,,,,,,313.2864464999984,314.48644539999805,315.2855141,315.2706655000002,315.27067739999984,315.2855141,315.2855141,315.2855141,316.07005979999667,right,0,0.7805995000016992,None,,,,,,,,,,,,,,,,,,,,,,,sub-020665,001,2024-03-08_16h11.23.449,random_dot,2023.2.3,59.93328227017903,2024-03-08 16h11.27.547682 +0100,
right,right,,,,,,,,,13,1,27,1,316.08790849999787,,,,,,,,,316.0706627999971,316.1711183999978,316.97184500000003,316.9554352999985,316.95544549999977,316.97184500000003,316.97184500000003,316.97184500000003,319.1740804999972,right,1,2.1909465999997337,None,,,,,,,,,,,,,,,,,,,,,,,sub-020665,001,2024-03-08_16h11.23.449,random_dot,2023.2.3,59.93328227017903,2024-03-08 16h11.27.547682 +0100,
right,right,,,,,,,,,14,0,28,1,319.1903388999999,,,,,,,,,319.1747535999966,319.27375889999894,320.07433879999735,320.05806069999744,320.0580723999992,320.07433879999735,320.07433879999735,320.07433879999735,321.1258428000001,right,1,1.0483549999989918,None,,,,,,,,,,,,,,,,,,,,,,,sub-020665,001,2024-03-08_16h11.23.449,random_dot,2023.2.3,59.93328227017903,2024-03-08 16h11.27.547682 +0100,
left,left,,,,,,,,,14,1,29,0,321.14199519999966,,,,,,,,,321.12634249999974,321.2253716999985,322.025944099998,322.00968549999743,322.0096969999977,322.025944099998,322.025944099998,322.025944099998,324.3934085000001,right,0,2.3525382000007085,None,,,,,,,,,,,,,,,,,,,,,,,sub-020665,001,2024-03-08_16h11.23.449,random_dot,2023.2.3,59.93328227017903,2024-03-08 16h11.27.547682 +0100,
left,left,,,,,,,,,15,0,30,0,324.4098578999983,,,,,,,,,324.3940217999989,325.19525809999686,325.99602499999673,325.97969159999775,325.97970319999877,325.99602499999673,325.99602499999673,325.99602499999673,326.64547279999897,right,0,0.6385870000012801,None,,,,,,,,,,,,,,,,,,,,,,,sub-020665,001,2024-03-08_16h11.23.449,random_dot,2023.2.3,59.93328227017903,2024-03-08 16h11.27.547682 +0100,
right,right,,,,,,,,,15,1,31,1,326.6616213999987,,,,,,,,,326.64598130000013,326.7450076999994,327.54724579999674,327.53078319999986,327.5307937999969,327.54724579999674,327.54724579999674,327.54724579999674,328.33224399999744,right,1,0.7836805000006279,None,,,,,,,,,,,,,,,,,,,,,,,sub-020665,001,2024-03-08_16h11.23.449,random_dot,2023.2.3,59.93328227017903,2024-03-08 16h11.27.547682 +0100,
right,right,,,,,,,,,16,0,32,1,328.3480739999977,,,,,,,,,328.33275589999903,329.53214389999994,330.3328666999987,330.3165689999987,330.31658029999744,330.3328666999987,330.3328666999987,330.3328666999987,331.2509941999997,right,1,0.9097159999982978,None,,,,,,,,,,,,,,,,,,,,,,,sub-020665,001,2024-03-08_16h11.23.449,random_dot,2023.2.3,59.93328227017903,2024-03-08 16h11.27.547682 +0100,
left,left,,,,,,,,,16,1,33,0,331.26704269999755,,,,,,,,,331.25149789999705,332.4513423999997,333.2520248000001,333.2355303999975,333.23554149999836,333.2520248000001,333.2520248000001,333.2520248000001,334.60364299999856,left,1,1.3350511000026017,None,,,,,,,,,,,,,,,,,,,,,,,sub-020665,001,2024-03-08_16h11.23.449,random_dot,2023.2.3,59.93328227017903,2024-03-08 16h11.27.547682 +0100,
right,right,,,,,,,,,17,0,34,1,334.6198586999999,,,,,,,,,334.6043193999976,335.4037587999992,336.2026687999969,336.18645999999717,336.186471099998,336.2026687999969,336.2026687999969,336.2026687999969,336.8723573999996,right,1,0.6564304999992601,None,,,,,,,,,,,,,,,,,,,,,,,sub-020665,001,2024-03-08_16h11.23.449,random_dot,2023.2.3,59.93328227017903,2024-03-08 16h11.27.547682 +0100,
left,left,,,,,,,,,17,1,35,0,336.88825319999887,,,,,,,,,336.87288409999746,337.6722972999996,338.47295109999686,338.45649839999896,338.4565088999989,338.47295109999686,338.47295109999686,338.47295109999686,339.2225529999996,left,1,0.7457237000016903,None,,,,,,,,,,,,,,,,,,,,,,,sub-020665,001,2024-03-08_16h11.23.449,random_dot,2023.2.3,59.93328227017903,2024-03-08 16h11.27.547682 +0100,
right,right,,,,,,,,,18,0,36,1,339.24033059999783,,,,,,,,,339.22307499999806,339.3220020999979,340.1226986999973,340.10794039999746,340.1079523999979,340.1226986999973,340.1226986999973,340.1226986999973,341.20754589999706,right,1,1.0804355000000214,None,,,,,,,,,,,,,,,,,,,,,,,sub-020665,001,2024-03-08_16h11.23.449,random_dot,2023.2.3,59.93328227017903,2024-03-08 16h11.27.547682 +0100,
left,left,,,,,,,,,18,1,37,0,341.2253071999985,,,,,,,,,341.2080790999971,341.55888309999864,342.35960799999884,342.3430821000002,342.34309369999755,342.35960799999884,342.35960799999884,342.35960799999884,343.4426429999985,left,1,1.0753491999967082,None,,,,,,,,,,,,,,,,,,,,,,,sub-020665,001,2024-03-08_16h11.23.449,random_dot,2023.2.3,59.93328227017903,2024-03-08 16h11.27.547682 +0100,
left,left,,,,,,,,,19,0,38,0,343.4588053999978,,,,,,,,,343.44316869999966,344.24437939999916,345.04347039999993,345.02864059999774,345.02865259999817,345.04347039999993,345.04347039999993,345.04347039999993,345.71118919999935,left,1,0.654833000000508,None,,,,,,,,,,,,,,,,,,,,,,,sub-020665,001,2024-03-08_16h11.23.449,random_dot,2023.2.3,59.93328227017903,2024-03-08 16h11.27.547682 +0100,
right,right,,,,,,,,,19,1,39,1,345.72902780000004,,,,,,,,,345.71170509999865,345.81235209999795,346.6129449,346.59688489999826,346.59689829999843,346.6129449,346.6129449,346.6129449,347.3474430999995,right,1,0.7263545999994676,None,,,,,,,,,,,,,,,,,,,,,,,sub-020665,001,2024-03-08_16h11.23.449,random_dot,2023.2.3,59.93328227017903,2024-03-08 16h11.27.547682 +0100,
right,right,,,,,,,,,20,0,40,1,347.36362499999814,,,,,,,,,347.34793739999805,347.4455066999981,348.2477005999972,348.23135219999676,348.23136299999896,348.2477005999972,348.2477005999972,348.2477005999972,349.065477199998,left,0,0.8106912000002922,None,,,,,,,,,,,,,,,,,,,,,,,sub-020665,001,2024-03-08_16h11.23.449,random_dot,2023.2.3,59.93328227017903,2024-03-08 16h11.27.547682 +0100,
left,left,,,,,,,,,20,1,41,0,349.08011049999914,,,,,,,,,349.0660253999995,349.1801826999981,349.9808787000002,349.9660840999968,349.9660993999969,349.9808787000002,349.9808787000002,349.9808787000002,350.4817312999985,right,0,0.4941953999987163,None,,,,,,,,,,,,,,,,,,,,,,,sub-020665,001,2024-03-08_16h11.23.449,random_dot,2023.2.3,59.93328227017903,2024-03-08 16h11.27.547682 +0100,
right,right,,,,,,,,,21,0,42,1,350.4995235999995,,,,,,,,,350.48223679999865,351.68225959999836,352.4846374999979,352.4681260999969,352.4681378999994,352.4846374999979,352.4846374999979,352.4846374999979,352.98542369999996,right,1,0.48572389999753796,None,,,,,,,,,,,,,,,,,,,,,,,sub-020665,001,2024-03-08_16h11.23.449,random_dot,2023.2.3,59.93328227017903,2024-03-08 16h11.27.547682 +0100,
left,left,,,,,,,,,21,1,43,0,353.00165039999774,,,,,,,,,352.98591979999765,353.08503389999896,353.88580159999765,353.8693695000002,353.8693812999991,353.88580159999765,353.88580159999765,353.88580159999765,354.38664739999876,right,0,0.49271539999972447,None,,,,,,,,,,,,,,,,,,,,,,,sub-020665,001,2024-03-08_16h11.23.449,random_dot,2023.2.3,59.93328227017903,2024-03-08 16h11.27.547682 +0100,
left,left,,,,,,,,,22,0,44,0,354.4028369999978,,,,,,,,,354.38714649999747,355.18687019999925,355.98754049999843,355.9709741999977,355.9709855000001,355.98754049999843,355.98754049999843,355.98754049999843,356.62189859999853,left,1,0.6312142999995558,None,,,,,,,,,,,,,,,,,,,,,,,sub-020665,001,2024-03-08_16h11.23.449,random_dot,2023.2.3,59.93328227017903,2024-03-08 16h11.27.547682 +0100,
right,right,,,,,,,,,22,1,45,1,356.63797579999664,,,,,,,,,356.62239469999986,356.72131660000014,357.5220434999974,357.5058960999995,357.50590779999766,357.5220434999974,357.5220434999974,357.5220434999974,358.1047124999968,right,1,0.5684566999989329,None,,,,,,,,,,,,,,,,,,,,,,,sub-020665,001,2024-03-08_16h11.23.449,random_dot,2023.2.3,59.93328227017903,2024-03-08 16h11.27.547682 +0100,
left,left,,,,,,,,,23,0,46,0,358.1209497999989,,,,,,,,,358.1052533000002,358.2059283999988,359.0049575999983,358.98864049999975,358.9886527999988,359.0049575999983,359.0049575999983,359.0049575999983,359.65624559999924,right,0,0.6460102000019106,None,,,,,,,,,,,,,,,,,,,,,,,sub-020665,001,2024-03-08_16h11.23.449,random_dot,2023.2.3,59.93328227017903,2024-03-08 16h11.27.547682 +0100,
right,right,,,,,,,,,23,1,47,1,359.67376030000014,,,,,,,,,359.6567432999982,359.7572375999989,360.5562839999984,360.541529099999,360.5415436999974,360.5562839999984,360.5562839999984,360.5562839999984,361.22404059999826,right,1,0.6546601999980339,None,,,,,,,,,,,,,,,,,,,,,,,sub-020665,001,2024-03-08_16h11.23.449,random_dot,2023.2.3,59.93328227017903,2024-03-08 16h11.27.547682 +0100,
left,left,,,,,,,,,24,0,48,0,361.2417134999996,,,,,,,,,361.2245471999995,361.32362029999786,362.12424219999957,362.10950909999883,362.10952349999934,362.12424219999957,362.12424219999957,362.12424219999957,362.77517269999953,left,1,0.6378320000003441,None,,,,,,,,,,,,,,,,,,,,,,,sub-020665,001,2024-03-08_16h11.23.449,random_dot,2023.2.3,59.93328227017903,2024-03-08 16h11.27.547682 +0100,
right,right,,,,,,,,,24,1,49,1,362.7932181999968,,,,,,,,,362.77567129999807,363.1250366999993,363.92733299999963,363.9110014999969,363.9110129999972,363.92733299999963,363.92733299999963,363.92733299999963,364.6283536999981,right,1,0.6988784999994095,None,,,,,,,,,,,,,,,,,,,,,,,sub-020665,001,2024-03-08_16h11.23.449,random_dot,2023.2.3,59.93328227017903,2024-03-08 16h11.27.547682 +0100,
left,left,,,,,,,,,25,0,50,0,364.64475069999753,,,,,,,,,364.6288610999982,365.8288560000001,366.6295229999996,366.6131046999981,366.61311509999723,366.6295229999996,366.6295229999996,366.6295229999996,367.14732529999674,right,0,0.5096704999996291,None,,,,,,,,,,,,,,,,,,,,,,,sub-020665,001,2024-03-08_16h11.23.449,random_dot,2023.2.3,59.93328227017903,2024-03-08 16h11.27.547682 +0100,
right,right,,,,,,,,,25,1,51,1,367.1633679999977,,,,,,,,,367.1478257999988,367.24675919999936,368.0457798999996,368.0309469999993,368.03095909999683,368.0457798999996,368.0457798999996,368.0457798999996,368.63006289999976,right,1,0.5804778999990958,None,,,,,,,,,,,,,,,,,,,,,,,sub-020665,001,2024-03-08_16h11.23.449,random_dot,2023.2.3,59.93328227017903,2024-03-08 16h11.27.547682 +0100,
right,right,,,,,,,,,26,0,52,1,368.6463068999983,,,,,,,,,368.6305917999998,368.97984769999675,369.78057249999983,369.7657808999975,369.7657932999973,369.78057249999983,369.78057249999983,369.78057249999983,370.49995839999974,right,1,0.7178149000028498,None,,,,,,,,,,,,,,,,,,,,,,,sub-020665,001,2024-03-08_16h11.23.449,random_dot,2023.2.3,59.93328227017903,2024-03-08 16h11.27.547682 +0100,
left,left,,,,,,,,,26,1,53,0,370.51625729999796,,,,,,,,,370.5004810999999,370.6145644999997,371.4153004,371.4004427999971,371.40045469999677,371.4153004,371.4153004,371.4153004,371.916550599999,right,0,0.49907270000039716,None,,,,,,,,,,,,,,,,,,,,,,,sub-020665,001,2024-03-08_16h11.23.449,random_dot,2023.2.3,59.93328227017903,2024-03-08 16h11.27.547682 +0100,
left,left,,,,,,,,,27,0,54,0,371.93229249999786,,,,,,,,,371.91704519999985,373.11829679999937,373.9188733999981,373.9025896999992,373.9026011999995,373.9188733999981,373.9188733999981,373.9188733999981,374.4032253999976,right,0,0.47569880000082776,None,,,,,,,,,,,,,,,,,,,,,,,sub-020665,001,2024-03-08_16h11.23.449,random_dot,2023.2.3,59.93328227017903,2024-03-08 16h11.27.547682 +0100,
right,right,,,,,,,,,27,1,55,1,374.41776089999985,,,,,,,,,374.4037403000002,375.20329989999664,376.0040373999982,375.9875186999998,375.9875291999997,376.0040373999982,376.0040373999982,376.0040373999982,376.57165989999703,right,1,0.5591540999994322,None,,,,,,,,,,,,,,,,,,,,,,,sub-020665,001,2024-03-08_16h11.23.449,random_dot,2023.2.3,59.93328227017903,2024-03-08 16h11.27.547682 +0100,
left,left,,,,,,,,,28,0,56,0,376.5877662999992,,,,,,,,,376.57233559999804,376.9214807999997,377.7220849999976,377.7057129999994,377.7057250999969,377.7220849999976,377.7220849999976,377.7220849999976,378.356509199999,left,1,0.6243668000024627,None,,,,,,,,,,,,,,,,,,,,,,,sub-020665,001,2024-03-08_16h11.23.449,random_dot,2023.2.3,59.93328227017903,2024-03-08 16h11.27.547682 +0100,
right,right,,,,,,,,,28,1,57,1,378.3727024999971,,,,,,,,,378.357009299998,378.72125609999785,379.5237003000002,379.5071141999979,379.50712479999856,379.5237003000002,379.5237003000002,379.5237003000002,380.1245780999998,right,1,0.5991286999997101,None,,,,,,,,,,,,,,,,,,,,,,,sub-020665,001,2024-03-08_16h11.23.449,random_dot,2023.2.3,59.93328227017903,2024-03-08 16h11.27.547682 +0100,
right,right,,,,,,,,,29,0,58,1,380.1406694999969,,,,,,,,,380.12507539999933,380.92467159999796,381.72542789999716,381.70894709999993,381.70895929999824,381.72542789999716,381.72542789999716,381.72542789999716,382.25966289999997,right,1,0.5172098999973969,None,,,,,,,,,,,,,,,,,,,,,,,sub-020665,001,2024-03-08_16h11.23.449,random_dot,2023.2.3,59.93328227017903,2024-03-08 16h11.27.547682 +0100,
left,left,,,,,,,,,29,1,59,0,382.2758443999992,,,,,,,,,382.26015579999876,383.4602492999984,384.2607852000001,384.2444723999979,384.24448349999875,384.2607852000001,384.2607852000001,384.2607852000001,384.7601390999989,right,0,0.4935204000030353,None,,,,,,,,,,,,,,,,,,,,,,,sub-020665,001,2024-03-08_16h11.23.449,random_dot,2023.2.3,59.93328227017903,2024-03-08 16h11.27.547682 +0100,
,,,,,,,,,,,,,,,,,,,,,,,,,,,,,,,,,,,,,,,,,,,,,,,,,,,,,,,384.7605404999995,384.77633819999755,389.76541499999803,,,,,,,,
