direction,corrAns,randomInstr,practice_trials.thisRepN,practice_trials.thisTrialN,practice_trials.thisN,test_trials.thisRepN,test_trials.thisTrialN,test_trials.thisN,respDots.keys,respDots.corr,respDots.rt,participant
NA,NA,NA,NA,NA,NA,NA,NA,NA,NA,NA,NA,sub-10860809
left,left,NA,0,0,0,NA,NA,NA,right,0,2.4498397580027813,sub-10860809
right,right,NA,0,1,1,NA,NA,NA,right,1,3.121750706995954,sub-10860809
left,left,NA,1,0,2,NA,NA,NA,left,1,2.4245501659970614,sub-10860809
right,right,NA,1,1,3,NA,NA,NA,right,1,2.780013022995263,sub-10860809
right,right,NA,2,0,4,NA,NA,NA,left,0,1.9525692770039311,sub-10860809
left,left,NA,2,1,5,NA,NA,NA,left,1,2.157539144005568,sub-10860809
right,right,NA,3,0,6,NA,NA,NA,right,1,1.9187793899982353,sub-10860809
left,left,NA,3,1,7,NA,NA,NA,left,1,0.987302831003035,sub-10860809
left,left,NA,4,0,8,NA,NA,NA,left,1,1.9229009310001857,sub-10860809
right,right,NA,4,1,9,NA,NA,NA,right,1,1.889213355003449,sub-10860809
right,right,NA,5,0,10,NA,NA,NA,left,0,0.90115476900246,sub-10860809
left,left,NA,5,1,11,NA,NA,NA,left,1,1.5747910029967898,sub-10860809
left,left,NA,6,0,12,NA,NA,NA,left,1,1.212633745999483,sub-10860809
right,right,NA,6,1,13,NA,NA,NA,left,0,1.9113919800001895,sub-10860809
right,right,NA,7,0,14,NA,NA,NA,left,0,2.966333176998887,sub-10860809
left,left,NA,7,1,15,NA,NA,NA,left,1,0.8330020419962239,sub-10860809
right,right,NA,8,0,16,NA,NA,NA,left,0,2.1167587750023813,sub-10860809
left,left,NA,8,1,17,NA,NA,NA,right,0,0.7822713390050922,sub-10860809
left,left,NA,9,0,18,NA,NA,NA,left,1,0.7178093439943041,sub-10860809
right,right,NA,9,1,19,NA,NA,NA,right,1,1.7348320289966068,sub-10860809
NA,NA,NA,NA,NA,NA,NA,NA,NA,NA,NA,NA,sub-10860809
NA,NA,NA,NA,NA,NA,NA,NA,NA,NA,NA,NA,sub-10860809
left,left,accuracy,NA,NA,NA,0,0,0,right,0,1.4262446709981305,sub-10860809
right,right,accuracy,NA,NA,NA,0,1,1,right,1,5.019969066001067,sub-10860809
left,left,accuracy,NA,NA,NA,1,0,2,left,1,3.218360399994708,sub-10860809
right,right,accuracy,NA,NA,NA,1,1,3,right,1,1.6738302939993446,sub-10860809
right,right,accuracy,NA,NA,NA,2,0,4,left,0,4.109402769994631,sub-10860809
left,left,accuracy,NA,NA,NA,2,1,5,left,1,4.33454241000436,sub-10860809
left,left,accuracy,NA,NA,NA,3,0,6,right,0,2.016033359002904,sub-10860809
right,right,accuracy,NA,NA,NA,3,1,7,right,1,1.2848385569959646,sub-10860809
left,left,accuracy,NA,NA,NA,4,0,8,left,1,5.366886033996707,sub-10860809
right,right,accuracy,NA,NA,NA,4,1,9,right,1,0.812726867996389,sub-10860809
right,right,accuracy,NA,NA,NA,5,0,10,right,1,1.4245962999993935,sub-10860809
left,left,accuracy,NA,NA,NA,5,1,11,left,1,0.9543637399983708,sub-10860809
left,left,accuracy,NA,NA,NA,6,0,12,left,1,1.837169136000739,sub-10860809
right,right,accuracy,NA,NA,NA,6,1,13,right,1,1.2155408469989195,sub-10860809
right,right,accuracy,NA,NA,NA,7,0,14,right,1,0.9288394010000048,sub-10860809
left,left,accuracy,NA,NA,NA,7,1,15,left,1,1.615373937995173,sub-10860809
left,left,accuracy,NA,NA,NA,8,0,16,left,1,1.043801601001178,sub-10860809
right,right,accuracy,NA,NA,NA,8,1,17,right,1,1.4264360110028065,sub-10860809
left,left,accuracy,NA,NA,NA,9,0,18,left,1,1.166899279000063,sub-10860809
right,right,accuracy,NA,NA,NA,9,1,19,right,1,0.7490694879961666,sub-10860809
right,right,accuracy,NA,NA,NA,10,0,20,right,1,1.3288453700006355,sub-10860809
left,left,accuracy,NA,NA,NA,10,1,21,left,1,1.0608128320018295,sub-10860809
left,left,accuracy,NA,NA,NA,11,0,22,left,1,1.8082560030015884,sub-10860809
right,right,accuracy,NA,NA,NA,11,1,23,right,1,0.8036559039974236,sub-10860809
left,left,accuracy,NA,NA,NA,12,0,24,left,1,0.9669228689963348,sub-10860809
right,right,accuracy,NA,NA,NA,12,1,25,right,1,1.051594794000266,sub-10860809
right,right,accuracy,NA,NA,NA,13,0,26,right,1,1.6167277650019969,sub-10860809
left,left,accuracy,NA,NA,NA,13,1,27,left,1,1.4349356309976429,sub-10860809
left,left,accuracy,NA,NA,NA,14,0,28,right,0,2.1405366449980647,sub-10860809
right,right,accuracy,NA,NA,NA,14,1,29,right,1,0.9514770839959964,sub-10860809
left,left,accuracy,NA,NA,NA,15,0,30,left,1,1.0577291490044445,sub-10860809
right,right,accuracy,NA,NA,NA,15,1,31,right,1,1.5100005330023123,sub-10860809
left,left,accuracy,NA,NA,NA,16,0,32,left,1,1.950655000000552,sub-10860809
right,right,accuracy,NA,NA,NA,16,1,33,right,1,0.9175763199964422,sub-10860809
right,right,accuracy,NA,NA,NA,17,0,34,right,1,1.0678413249988807,sub-10860809
left,left,accuracy,NA,NA,NA,17,1,35,right,0,3.178762937001011,sub-10860809
right,right,accuracy,NA,NA,NA,18,0,36,right,1,1.289410550998582,sub-10860809
left,left,accuracy,NA,NA,NA,18,1,37,left,1,1.6033780989964723,sub-10860809
left,left,accuracy,NA,NA,NA,19,0,38,left,1,2.56528149699443,sub-10860809
right,right,accuracy,NA,NA,NA,19,1,39,right,1,2.126193020994833,sub-10860809
left,left,accuracy,NA,NA,NA,20,0,40,left,1,4.853800140997919,sub-10860809
right,right,accuracy,NA,NA,NA,20,1,41,right,1,1.644699602999026,sub-10860809
right,right,accuracy,NA,NA,NA,21,0,42,left,0,1.7565985339970211,sub-10860809
left,left,accuracy,NA,NA,NA,21,1,43,left,1,4.421721742000955,sub-10860809
left,left,accuracy,NA,NA,NA,22,0,44,right,0,1.7828479380041244,sub-10860809
right,right,accuracy,NA,NA,NA,22,1,45,right,1,1.1452383360010572,sub-10860809
left,left,accuracy,NA,NA,NA,23,0,46,right,0,3.091327584996179,sub-10860809
right,right,accuracy,NA,NA,NA,23,1,47,right,1,1.9367007550026756,sub-10860809
right,right,accuracy,NA,NA,NA,24,0,48,right,1,2.3087584969980526,sub-10860809
left,left,accuracy,NA,NA,NA,24,1,49,left,1,5.241192913999839,sub-10860809
left,left,accuracy,NA,NA,NA,25,0,50,right,0,0.8989728480009944,sub-10860809
right,right,accuracy,NA,NA,NA,25,1,51,right,1,1.499478479003301,sub-10860809
left,left,accuracy,NA,NA,NA,26,0,52,left,1,1.5076616969963652,sub-10860809
right,right,accuracy,NA,NA,NA,26,1,53,right,1,1.2364628529976471,sub-10860809
right,right,accuracy,NA,NA,NA,27,0,54,left,0,1.9288213789986912,sub-10860809
left,left,accuracy,NA,NA,NA,27,1,55,left,1,3.05237880799541,sub-10860809
right,right,accuracy,NA,NA,NA,28,0,56,right,1,2.203806377998262,sub-10860809
left,left,accuracy,NA,NA,NA,28,1,57,left,1,3.728849175000505,sub-10860809
left,left,accuracy,NA,NA,NA,29,0,58,right,0,3.677426652997383,sub-10860809
right,right,accuracy,NA,NA,NA,29,1,59,right,1,3.551432392996503,sub-10860809
NA,NA,accuracy,NA,NA,NA,NA,NA,NA,NA,NA,NA,sub-10860809
left,left,speed,NA,NA,NA,0,0,0,right,0,0.6942612380007631,sub-10860809
right,right,speed,NA,NA,NA,0,1,1,right,1,0.8032687869999791,sub-10860809
left,left,speed,NA,NA,NA,1,0,2,left,1,0.6435896730035893,sub-10860809
right,right,speed,NA,NA,NA,1,1,3,right,1,0.7959441909988527,sub-10860809
left,left,speed,NA,NA,NA,2,0,4,left,1,0.7864985759952106,sub-10860809
right,right,speed,NA,NA,NA,2,1,5,right,1,0.5842155360005563,sub-10860809
right,right,speed,NA,NA,NA,3,0,6,left,0,0.6399450020035147,sub-10860809
left,left,speed,NA,NA,NA,3,1,7,right,0,0.7533868899990921,sub-10860809
left,left,speed,NA,NA,NA,4,0,8,right,0,0.7404408200018224,sub-10860809
right,right,speed,NA,NA,NA,4,1,9,left,0,0.5568957249997766,sub-10860809
right,right,speed,NA,NA,NA,5,0,10,right,1,0.3091486420016736,sub-10860809
left,left,speed,NA,NA,NA,5,1,11,right,0,0.7870511459987029,sub-10860809
right,right,speed,NA,NA,NA,6,0,12,left,0,0.33536745500168763,sub-10860809
left,left,speed,NA,NA,NA,6,1,13,right,0,0.5717238369979896,sub-10860809
left,left,speed,NA,NA,NA,7,0,14,right,0,1.1857825929982937,sub-10860809
right,right,speed,NA,NA,NA,7,1,15,left,0,0.6824527220014716,sub-10860809
left,left,speed,NA,NA,NA,8,0,16,right,0,0.7727060309989611,sub-10860809
right,right,speed,NA,NA,NA,8,1,17,left,0,2.2765924639970763,sub-10860809
left,left,speed,NA,NA,NA,9,0,18,right,0,1.177596513996832,sub-10860809
right,right,speed,NA,NA,NA,9,1,19,left,0,0.6868072009965545,sub-10860809
right,right,speed,NA,NA,NA,10,0,20,right,1,0.3541836560034426,sub-10860809
left,left,speed,NA,NA,NA,10,1,21,right,0,0.8531584680022206,sub-10860809
left,left,speed,NA,NA,NA,11,0,22,right,0,1.0398268979988643,sub-10860809
right,right,speed,NA,NA,NA,11,1,23,left,0,0.3844136640036595,sub-10860809
right,right,speed,NA,NA,NA,12,0,24,left,0,0.5211264399986248,sub-10860809
left,left,speed,NA,NA,NA,12,1,25,left,1,0.28781577500194544,sub-10860809
right,right,speed,NA,NA,NA,13,0,26,right,1,0.2564132010011235,sub-10860809
left,left,speed,NA,NA,NA,13,1,27,left,1,0.2240569490022608,sub-10860809
left,left,speed,NA,NA,NA,14,0,28,left,1,0.2619540679952479,sub-10860809
right,right,speed,NA,NA,NA,14,1,29,right,1,0.3968727520041284,sub-10860809
left,left,speed,NA,NA,NA,15,0,30,left,1,0.3496692319968133,sub-10860809
right,right,speed,NA,NA,NA,15,1,31,left,0,0.37772440900153015,sub-10860809
right,right,speed,NA,NA,NA,16,0,32,right,1,0.21116472499852537,sub-10860809
left,left,speed,NA,NA,NA,16,1,33,left,1,0.2344229020018247,sub-10860809
left,left,speed,NA,NA,NA,17,0,34,right,0,0.26155002399900695,sub-10860809
right,right,speed,NA,NA,NA,17,1,35,left,0,0.32624449399736477,sub-10860809
right,right,speed,NA,NA,NA,18,0,36,left,0,0.837022589003027,sub-10860809
left,left,speed,NA,NA,NA,18,1,37,right,0,0.7042623520028428,sub-10860809
left,left,speed,NA,NA,NA,19,0,38,left,1,0.33761701000184985,sub-10860809
right,right,speed,NA,NA,NA,19,1,39,left,0,0.298622157999489,sub-10860809
left,left,speed,NA,NA,NA,20,0,40,left,1,0.5179891679945285,sub-10860809
right,right,speed,NA,NA,NA,20,1,41,right,1,0.5573744970024563,sub-10860809
right,right,speed,NA,NA,NA,21,0,42,left,0,0.29500246699899435,sub-10860809
left,left,speed,NA,NA,NA,21,1,43,left,1,0.3261213349978789,sub-10860809
right,right,speed,NA,NA,NA,22,0,44,right,1,0.3927741579973372,sub-10860809
left,left,speed,NA,NA,NA,22,1,45,left,1,0.45619955000438495,sub-10860809
right,right,speed,NA,NA,NA,23,0,46,right,1,0.6616680420047487,sub-10860809
left,left,speed,NA,NA,NA,23,1,47,left,1,0.7577703239949187,sub-10860809
left,left,speed,NA,NA,NA,24,0,48,left,1,0.703365606997977,sub-10860809
right,right,speed,NA,NA,NA,24,1,49,right,1,0.7298133470030734,sub-10860809
right,right,speed,NA,NA,NA,25,0,50,right,1,0.6172217089988408,sub-10860809
left,left,speed,NA,NA,NA,25,1,51,right,0,0.8362790590035729,sub-10860809
left,left,speed,NA,NA,NA,26,0,52,right,0,0.3857299209994381,sub-10860809
right,right,speed,NA,NA,NA,26,1,53,left,0,0.9518676399966352,sub-10860809
left,left,speed,NA,NA,NA,27,0,54,left,1,0.7278397359987139,sub-10860809
right,right,speed,NA,NA,NA,27,1,55,left,0,0.4069961169952876,sub-10860809
left,left,speed,NA,NA,NA,28,0,56,left,1,0.2745668130010017,sub-10860809
right,right,speed,NA,NA,NA,28,1,57,right,1,0.6290068309972412,sub-10860809
left,left,speed,NA,NA,NA,29,0,58,left,1,0.4557785930010141,sub-10860809
right,right,speed,NA,NA,NA,29,1,59,left,0,0.6571440669940785,sub-10860809
NA,NA,speed,NA,NA,NA,NA,NA,NA,NA,NA,NA,sub-10860809
NA,NA,NA,NA,NA,NA,NA,NA,NA,NA,NA,NA,sub-10860809
