direction,corrAns,randomInstr,practice_trials.thisRepN,practice_trials.thisTrialN,practice_trials.thisN,test_trials.thisRepN,test_trials.thisTrialN,test_trials.thisN,respDots.keys,respDots.corr,respDots.rt,participant
NA,NA,NA,NA,NA,NA,NA,NA,NA,NA,NA,NA,sub-68657905
left,left,NA,0,0,0,NA,NA,NA,left,1,16.5272159,sub-68657905
right,right,NA,0,1,1,NA,NA,NA,right,1,4.1354918,sub-68657905
right,right,NA,1,0,2,NA,NA,NA,left,0,3.8054183,sub-68657905
left,left,NA,1,1,3,NA,NA,NA,right,0,2.7231549,sub-68657905
left,left,NA,2,0,4,NA,NA,NA,left,1,6.1918526,sub-68657905
right,right,NA,2,1,5,NA,NA,NA,right,1,5.541536,sub-68657905
right,right,NA,3,0,6,NA,NA,NA,left,0,1.4649076,sub-68657905
left,left,NA,3,1,7,NA,NA,NA,right,0,0.1298597,sub-68657905
left,left,NA,4,0,8,NA,NA,NA,left,1,0.483193,sub-68657905
right,right,NA,4,1,9,NA,NA,NA,right,1,0.576,sub-68657905
left,left,NA,5,0,10,NA,NA,NA,right,0,3.0430476,sub-68657905
right,right,NA,5,1,11,NA,NA,NA,left,0,4.2842508,sub-68657905
right,right,NA,6,0,12,NA,NA,NA,right,1,0.401849,sub-68657905
left,left,NA,6,1,13,NA,NA,NA,right,0,0.0271123,sub-68657905
left,left,NA,7,0,14,NA,NA,NA,right,0,0.3517999,sub-68657905
right,right,NA,7,1,15,NA,NA,NA,left,0,0.3498133,sub-68657905
right,right,NA,8,0,16,NA,NA,NA,left,0,0.8253207,sub-68657905
left,left,NA,8,1,17,NA,NA,NA,right,0,3.3931737,sub-68657905
right,right,NA,9,0,18,NA,NA,NA,right,1,5.5349225,sub-68657905
left,left,NA,9,1,19,NA,NA,NA,right,0,1.7697936,sub-68657905
NA,NA,NA,NA,NA,NA,NA,NA,NA,NA,NA,NA,sub-68657905
NA,NA,NA,NA,NA,NA,NA,NA,NA,NA,NA,NA,sub-68657905
right,right,accuracy,NA,NA,NA,0,0,0,right,1,2.7759428,sub-68657905
left,left,accuracy,NA,NA,NA,0,1,1,left,1,3.153056,sub-68657905
right,right,accuracy,NA,NA,NA,1,0,2,left,0,1.6150751,sub-68657905
left,left,accuracy,NA,NA,NA,1,1,3,left,1,3.6508166,sub-68657905
right,right,accuracy,NA,NA,NA,2,0,4,right,1,3.1151127,sub-68657905
left,left,accuracy,NA,NA,NA,2,1,5,right,0,0.9381701,sub-68657905
right,right,accuracy,NA,NA,NA,3,0,6,right,1,0.7945288,sub-68657905
left,left,accuracy,NA,NA,NA,3,1,7,left,1,0.3199057,sub-68657905
left,left,accuracy,NA,NA,NA,4,0,8,left,1,0.6286711,sub-68657905
right,right,accuracy,NA,NA,NA,4,1,9,right,1,0.662132,sub-68657905
right,right,accuracy,NA,NA,NA,5,0,10,left,0,0.3510652,sub-68657905
left,left,accuracy,NA,NA,NA,5,1,11,right,0,0.6573164,sub-68657905
left,left,accuracy,NA,NA,NA,6,0,12,right,0,1.4033721,sub-68657905
right,right,accuracy,NA,NA,NA,6,1,13,right,1,1.3676849,sub-68657905
right,right,accuracy,NA,NA,NA,7,0,14,left,0,1.4751043,sub-68657905
left,left,accuracy,NA,NA,NA,7,1,15,left,1,1.8004861,sub-68657905
right,right,accuracy,NA,NA,NA,8,0,16,left,0,1.5293119,sub-68657905
left,left,accuracy,NA,NA,NA,8,1,17,left,1,2.2485739,sub-68657905
right,right,accuracy,NA,NA,NA,9,0,18,left,0,2.2044225,sub-68657905
left,left,accuracy,NA,NA,NA,9,1,19,right,0,1.185338,sub-68657905
left,left,accuracy,NA,NA,NA,10,0,20,right,0,1.0288704,sub-68657905
right,right,accuracy,NA,NA,NA,10,1,21,right,1,1.3985258,sub-68657905
left,left,accuracy,NA,NA,NA,11,0,22,left,1,1.0780103,sub-68657905
right,right,accuracy,NA,NA,NA,11,1,23,right,1,2.7094493,sub-68657905
right,right,accuracy,NA,NA,NA,12,0,24,right,1,3.0609038,sub-68657905
left,left,accuracy,NA,NA,NA,12,1,25,left,1,3.6100158,sub-68657905
right,right,accuracy,NA,NA,NA,13,0,26,right,1,6.100141,sub-68657905
left,left,accuracy,NA,NA,NA,13,1,27,left,1,4.5117935,sub-68657905
left,left,accuracy,NA,NA,NA,14,0,28,right,0,0.5299894,sub-68657905
right,right,accuracy,NA,NA,NA,14,1,29,left,0,0.3662218,sub-68657905
left,left,accuracy,NA,NA,NA,15,0,30,right,0,0.8793379,sub-68657905
right,right,accuracy,NA,NA,NA,15,1,31,left,0,3.1500852,sub-68657905
left,left,accuracy,NA,NA,NA,16,0,32,left,1,3.1753982,sub-68657905
right,right,accuracy,NA,NA,NA,16,1,33,left,0,0.5364532,sub-68657905
right,right,accuracy,NA,NA,NA,17,0,34,left,0,0.881836,sub-68657905
left,left,accuracy,NA,NA,NA,17,1,35,right,0,2.4276881,sub-68657905
right,right,accuracy,NA,NA,NA,18,0,36,right,1,1.9457335,sub-68657905
left,left,accuracy,NA,NA,NA,18,1,37,right,0,5.6665463,sub-68657905
left,left,accuracy,NA,NA,NA,19,0,38,left,1,1.7532625,sub-68657905
right,right,accuracy,NA,NA,NA,19,1,39,left,0,0.3235152,sub-68657905
right,right,accuracy,NA,NA,NA,20,0,40,right,1,0.3270932,sub-68657905
left,left,accuracy,NA,NA,NA,20,1,41,left,1,0.2543876,sub-68657905
right,right,accuracy,NA,NA,NA,21,0,42,right,1,0.3294321,sub-68657905
left,left,accuracy,NA,NA,NA,21,1,43,left,1,0.2607136,sub-68657905
right,right,accuracy,NA,NA,NA,22,0,44,left,0,0.048205,sub-68657905
left,left,accuracy,NA,NA,NA,22,1,45,left,1,0.1864852,sub-68657905
left,left,accuracy,NA,NA,NA,23,0,46,right,0,0.2879506,sub-68657905
right,right,accuracy,NA,NA,NA,23,1,47,left,0,0.4442799,sub-68657905
left,left,accuracy,NA,NA,NA,24,0,48,right,0,0.2930644,sub-68657905
right,right,accuracy,NA,NA,NA,24,1,49,left,0,0.55854,sub-68657905
right,right,accuracy,NA,NA,NA,25,0,50,left,0,0.2749701,sub-68657905
left,left,accuracy,NA,NA,NA,25,1,51,right,0,0.2701749,sub-68657905
left,left,accuracy,NA,NA,NA,26,0,52,left,1,0.2294203,sub-68657905
right,right,accuracy,NA,NA,NA,26,1,53,left,0,0.3287374,sub-68657905
left,left,accuracy,NA,NA,NA,27,0,54,right,0,0.3891104,sub-68657905
right,right,accuracy,NA,NA,NA,27,1,55,right,1,0.4713573,sub-68657905
left,left,accuracy,NA,NA,NA,28,0,56,right,0,0.245051,sub-68657905
right,right,accuracy,NA,NA,NA,28,1,57,right,1,1.7782142,sub-68657905
left,left,accuracy,NA,NA,NA,29,0,58,left,1,2.8772319,sub-68657905
right,right,accuracy,NA,NA,NA,29,1,59,right,1,4.3463171,sub-68657905
NA,NA,accuracy,NA,NA,NA,NA,NA,NA,NA,NA,NA,sub-68657905
left,left,speed,NA,NA,NA,0,0,0,right,0,0.4024554,sub-68657905
right,right,speed,NA,NA,NA,0,1,1,left,0,0.4337294,sub-68657905
left,left,speed,NA,NA,NA,1,0,2,left,1,0.10975,sub-68657905
right,right,speed,NA,NA,NA,1,1,3,left,0,2.9539458,sub-68657905
right,right,speed,NA,NA,NA,2,0,4,right,1,1.6605592,sub-68657905
left,left,speed,NA,NA,NA,2,1,5,right,0,2.1036543,sub-68657905
left,left,speed,NA,NA,NA,3,0,6,left,1,2.7183044,sub-68657905
right,right,speed,NA,NA,NA,3,1,7,left,0,0.4650319,sub-68657905
left,left,speed,NA,NA,NA,4,0,8,right,0,1.506852,sub-68657905
right,right,speed,NA,NA,NA,4,1,9,right,1,0.971215,sub-68657905
right,right,speed,NA,NA,NA,5,0,10,right,1,1.2039331,sub-68657905
left,left,speed,NA,NA,NA,5,1,11,left,1,1.1655902,sub-68657905
left,left,speed,NA,NA,NA,6,0,12,right,0,2.1417502,sub-68657905
right,right,speed,NA,NA,NA,6,1,13,left,0,2.6695987,sub-68657905
right,right,speed,NA,NA,NA,7,0,14,right,1,0.3583959,sub-68657905
left,left,speed,NA,NA,NA,7,1,15,right,0,0.3740911,sub-68657905
left,left,speed,NA,NA,NA,8,0,16,left,1,0.3201044,sub-68657905
right,right,speed,NA,NA,NA,8,1,17,left,0,0.2619895,sub-68657905
left,left,speed,NA,NA,NA,9,0,18,left,1,1.1245229,sub-68657905
right,right,speed,NA,NA,NA,9,1,19,right,1,0.8678856,sub-68657905
left,left,speed,NA,NA,NA,10,0,20,left,1,0.3589791,sub-68657905
right,right,speed,NA,NA,NA,10,1,21,left,0,0.5565602,sub-68657905
right,right,speed,NA,NA,NA,11,0,22,right,1,0.2666513,sub-68657905
left,left,speed,NA,NA,NA,11,1,23,left,1,0.5701358,sub-68657905
right,right,speed,NA,NA,NA,12,0,24,right,1,1.536144,sub-68657905
left,left,speed,NA,NA,NA,12,1,25,right,0,0.294248,sub-68657905
left,left,speed,NA,NA,NA,13,0,26,left,1,3.528446,sub-68657905
right,right,speed,NA,NA,NA,13,1,27,right,1,0.3065473,sub-68657905
right,right,speed,NA,NA,NA,14,0,28,left,0,0.9695959,sub-68657905
left,left,speed,NA,NA,NA,14,1,29,left,1,0.1007285,sub-68657905
right,right,speed,NA,NA,NA,15,0,30,right,1,0.2022933,sub-68657905
left,left,speed,NA,NA,NA,15,1,31,right,0,0.0396465,sub-68657905
left,left,speed,NA,NA,NA,16,0,32,right,0,0.0603083,sub-68657905
right,right,speed,NA,NA,NA,16,1,33,right,1,0.1618421,sub-68657905
right,right,speed,NA,NA,NA,17,0,34,right,1,0.0635792,sub-68657905
left,left,speed,NA,NA,NA,17,1,35,right,0,0.08635,sub-68657905
left,left,speed,NA,NA,NA,18,0,36,left,1,0.1283497,sub-68657905
right,right,speed,NA,NA,NA,18,1,37,left,0,0.0490724,sub-68657905
left,left,speed,NA,NA,NA,19,0,38,left,1,0.1153492,sub-68657905
right,right,speed,NA,NA,NA,19,1,39,left,0,0.07005,sub-68657905
right,right,speed,NA,NA,NA,20,0,40,left,0,0.008672,sub-68657905
left,left,speed,NA,NA,NA,20,1,41,left,1,0.0800195,sub-68657905
right,right,speed,NA,NA,NA,21,0,42,left,0,0.6914147,sub-68657905
left,left,speed,NA,NA,NA,21,1,43,left,1,1.2507903,sub-68657905
left,left,speed,NA,NA,NA,22,0,44,left,1,0.3596457,sub-68657905
right,right,speed,NA,NA,NA,22,1,45,left,0,0.3171114,sub-68657905
right,right,speed,NA,NA,NA,23,0,46,right,1,1.5096961,sub-68657905
left,left,speed,NA,NA,NA,23,1,47,right,0,0.3278704,sub-68657905
left,left,speed,NA,NA,NA,24,0,48,left,1,1.6014172,sub-68657905
right,right,speed,NA,NA,NA,24,1,49,left,0,0.3117323,sub-68657905
right,right,speed,NA,NA,NA,25,0,50,left,0,0.2663789,sub-68657905
left,left,speed,NA,NA,NA,25,1,51,right,0,0.2983945,sub-68657905
right,right,speed,NA,NA,NA,26,0,52,left,0,0.2786701,sub-68657905
left,left,speed,NA,NA,NA,26,1,53,right,0,0.3513046,sub-68657905
right,right,speed,NA,NA,NA,27,0,54,left,0,3.2955598,sub-68657905
left,left,speed,NA,NA,NA,27,1,55,right,0,0.2836892,sub-68657905
left,left,speed,NA,NA,NA,28,0,56,left,1,0.3123338,sub-68657905
right,right,speed,NA,NA,NA,28,1,57,right,1,1.1819038,sub-68657905
right,right,speed,NA,NA,NA,29,0,58,right,1,2.7841586,sub-68657905
left,left,speed,NA,NA,NA,29,1,59,left,1,1.09497,sub-68657905
NA,NA,speed,NA,NA,NA,NA,NA,NA,NA,NA,NA,sub-68657905
NA,NA,NA,NA,NA,NA,NA,NA,NA,NA,NA,NA,sub-68657905
