direction,corrAns,randomInstr,practice_trials.thisRepN,practice_trials.thisTrialN,practice_trials.thisN,test_trials.thisRepN,test_trials.thisTrialN,test_trials.thisN,respDots.keys,respDots.corr,respDots.rt,participant
NA,NA,NA,NA,NA,NA,NA,NA,NA,NA,NA,NA,sub-51169068
right,right,NA,0,0,0,NA,NA,NA,right,1,1.919659800012596,sub-51169068
left,left,NA,0,1,1,NA,NA,NA,left,1,2.1410099000204355,sub-51169068
left,left,NA,1,0,2,NA,NA,NA,right,0,1.5798294000560418,sub-51169068
right,right,NA,1,1,3,NA,NA,NA,right,1,3.1958693000487983,sub-51169068
right,right,NA,2,0,4,NA,NA,NA,left,0,2.0618111999938264,sub-51169068
left,left,NA,2,1,5,NA,NA,NA,right,0,3.391056400025263,sub-51169068
right,right,NA,3,0,6,NA,NA,NA,right,1,1.4618038000771776,sub-51169068
left,left,NA,3,1,7,NA,NA,NA,left,1,2.6195637000491843,sub-51169068
left,left,NA,4,0,8,NA,NA,NA,left,1,5.24409629998263,sub-51169068
right,right,NA,4,1,9,NA,NA,NA,right,1,1.2705103000625968,sub-51169068
left,left,NA,5,0,10,NA,NA,NA,left,1,1.9459289000369608,sub-51169068
right,right,NA,5,1,11,NA,NA,NA,right,1,1.4254879999207333,sub-51169068
left,left,NA,6,0,12,NA,NA,NA,left,1,2.178669200045988,sub-51169068
right,right,NA,6,1,13,NA,NA,NA,right,1,2.441346500068903,sub-51169068
left,left,NA,7,0,14,NA,NA,NA,left,1,1.9903303999453783,sub-51169068
right,right,NA,7,1,15,NA,NA,NA,right,1,0.8251717999810353,sub-51169068
left,left,NA,8,0,16,NA,NA,NA,right,0,1.4419410000555215,sub-51169068
right,right,NA,8,1,17,NA,NA,NA,right,1,1.557322800043039,sub-51169068
right,right,NA,9,0,18,NA,NA,NA,left,0,2.3338261999888346,sub-51169068
left,left,NA,9,1,19,NA,NA,NA,left,1,1.49944929999765,sub-51169068
NA,NA,NA,NA,NA,NA,NA,NA,NA,NA,NA,NA,sub-51169068
NA,NA,NA,NA,NA,NA,NA,NA,NA,NA,NA,NA,sub-51169068
right,right,speed,NA,NA,NA,0,0,0,right,1,0.8361902999458835,sub-51169068
left,left,speed,NA,NA,NA,0,1,1,left,1,2.5933700000168756,sub-51169068
right,right,speed,NA,NA,NA,1,0,2,right,1,2.2082084000576288,sub-51169068
left,left,speed,NA,NA,NA,1,1,3,left,1,2.223112100036815,sub-51169068
left,left,speed,NA,NA,NA,2,0,4,left,1,2.706967099918984,sub-51169068
right,right,speed,NA,NA,NA,2,1,5,right,1,1.485229599988088,sub-51169068
right,right,speed,NA,NA,NA,3,0,6,right,1,2.9765914999879897,sub-51169068
left,left,speed,NA,NA,NA,3,1,7,left,1,3.2777628999901935,sub-51169068
left,left,speed,NA,NA,NA,4,0,8,right,0,2.2070266000228003,sub-51169068
right,right,speed,NA,NA,NA,4,1,9,right,1,1.391829999978654,sub-51169068
right,right,speed,NA,NA,NA,5,0,10,left,0,3.471206899965182,sub-51169068
left,left,speed,NA,NA,NA,5,1,11,left,1,1.9345329999923704,sub-51169068
right,right,speed,NA,NA,NA,6,0,12,right,1,1.9837336000055077,sub-51169068
left,left,speed,NA,NA,NA,6,1,13,right,0,4.613673500018194,sub-51169068
right,right,speed,NA,NA,NA,7,0,14,right,1,1.4552776999771595,sub-51169068
left,left,speed,NA,NA,NA,7,1,15,left,1,1.3985487999161703,sub-51169068
right,right,speed,NA,NA,NA,8,0,16,right,1,0.9084083000198008,sub-51169068
left,left,speed,NA,NA,NA,8,1,17,left,1,0.9922204000176862,sub-51169068
right,right,speed,NA,NA,NA,9,0,18,right,1,0.8411838000174612,sub-51169068
left,left,speed,NA,NA,NA,9,1,19,left,1,1.3020008000312373,sub-51169068
right,right,speed,NA,NA,NA,10,0,20,right,1,0.7924236000981182,sub-51169068
left,left,speed,NA,NA,NA,10,1,21,left,1,0.8153888999950141,sub-51169068
right,right,speed,NA,NA,NA,11,0,22,right,1,0.6915843000169843,sub-51169068
left,left,speed,NA,NA,NA,11,1,23,left,1,2.0420673999469727,sub-51169068
right,right,speed,NA,NA,NA,12,0,24,right,1,0.6199631999479607,sub-51169068
left,left,speed,NA,NA,NA,12,1,25,left,1,2.2611666000448167,sub-51169068
right,right,speed,NA,NA,NA,13,0,26,right,1,1.5739458999596536,sub-51169068
left,left,speed,NA,NA,NA,13,1,27,left,1,0.7938750000903383,sub-51169068
right,right,speed,NA,NA,NA,14,0,28,right,1,0.6778838000027463,sub-51169068
left,left,speed,NA,NA,NA,14,1,29,left,1,2.2354023000225425,sub-51169068
right,right,speed,NA,NA,NA,15,0,30,right,1,0.7630010000430048,sub-51169068
left,left,speed,NA,NA,NA,15,1,31,left,1,3.212837200029753,sub-51169068
left,left,speed,NA,NA,NA,16,0,32,left,1,2.090793600073084,sub-51169068
right,right,speed,NA,NA,NA,16,1,33,right,1,0.5845888999756426,sub-51169068
left,left,speed,NA,NA,NA,17,0,34,left,1,2.511183100054041,sub-51169068
right,right,speed,NA,NA,NA,17,1,35,right,1,2.6716731999767944,sub-51169068
right,right,speed,NA,NA,NA,18,0,36,right,1,1.7135546000208706,sub-51169068
left,left,speed,NA,NA,NA,18,1,37,left,1,0.6769997999072075,sub-51169068
right,right,speed,NA,NA,NA,19,0,38,right,1,1.63191769993864,sub-51169068
left,left,speed,NA,NA,NA,19,1,39,left,1,0.9441388000268488,sub-51169068
left,left,speed,NA,NA,NA,20,0,40,left,1,1.6117910000029951,sub-51169068
right,right,speed,NA,NA,NA,20,1,41,right,1,0.6972898000385612,sub-51169068
right,right,speed,NA,NA,NA,21,0,42,right,1,0.9766713998978958,sub-51169068
left,left,speed,NA,NA,NA,21,1,43,right,0,1.4087719999952242,sub-51169068
left,left,speed,NA,NA,NA,22,0,44,left,1,1.091989800101146,sub-51169068
right,right,speed,NA,NA,NA,22,1,45,right,1,0.8596892000641674,sub-51169068
right,right,speed,NA,NA,NA,23,0,46,right,1,1.3013959999661893,sub-51169068
left,left,speed,NA,NA,NA,23,1,47,left,1,1.680806600023061,sub-51169068
left,left,speed,NA,NA,NA,24,0,48,left,1,2.9629821999697015,sub-51169068
right,right,speed,NA,NA,NA,24,1,49,right,1,0.9416276999982074,sub-51169068
right,right,speed,NA,NA,NA,25,0,50,left,0,1.791518099955283,sub-51169068
left,left,speed,NA,NA,NA,25,1,51,left,1,3.138225100003183,sub-51169068
right,right,speed,NA,NA,NA,26,0,52,right,1,1.904157100012526,sub-51169068
left,left,speed,NA,NA,NA,26,1,53,right,0,0.9777687001042068,sub-51169068
left,left,speed,NA,NA,NA,27,0,54,left,1,1.7198796999873591,sub-51169068
right,right,speed,NA,NA,NA,27,1,55,right,1,3.1102897999808192,sub-51169068
left,left,speed,NA,NA,NA,28,0,56,left,1,1.3473835000768304,sub-51169068
right,right,speed,NA,NA,NA,28,1,57,right,1,1.0113495999248698,sub-51169068
right,right,speed,NA,NA,NA,29,0,58,right,1,0.5669264999451116,sub-51169068
left,left,speed,NA,NA,NA,29,1,59,left,1,2.034762099967338,sub-51169068
NA,NA,speed,NA,NA,NA,NA,NA,NA,NA,NA,NA,sub-51169068
left,left,accuracy,NA,NA,NA,0,0,0,left,1,1.3053292999975383,sub-51169068
right,right,accuracy,NA,NA,NA,0,1,1,right,1,0.766217999975197,sub-51169068
right,right,accuracy,NA,NA,NA,1,0,2,right,1,1.9336608001030984,sub-51169068
left,left,accuracy,NA,NA,NA,1,1,3,left,1,8.157721900031902,sub-51169068
right,right,accuracy,NA,NA,NA,2,0,4,right,1,1.632988799945451,sub-51169068
left,left,accuracy,NA,NA,NA,2,1,5,left,1,1.3967399999964982,sub-51169068
right,right,accuracy,NA,NA,NA,3,0,6,right,1,0.7855922000017017,sub-51169068
left,left,accuracy,NA,NA,NA,3,1,7,left,1,3.819328699959442,sub-51169068
right,right,accuracy,NA,NA,NA,4,0,8,right,1,1.184686499997042,sub-51169068
left,left,accuracy,NA,NA,NA,4,1,9,left,1,0.799331699963659,sub-51169068
left,left,accuracy,NA,NA,NA,5,0,10,left,1,3.588471000082791,sub-51169068
right,right,accuracy,NA,NA,NA,5,1,11,right,1,0.9220352999400347,sub-51169068
left,left,accuracy,NA,NA,NA,6,0,12,left,1,3.757219600025565,sub-51169068
right,right,accuracy,NA,NA,NA,6,1,13,right,1,1.7239333000034094,sub-51169068
left,left,accuracy,NA,NA,NA,7,0,14,left,1,1.129072800045833,sub-51169068
right,right,accuracy,NA,NA,NA,7,1,15,left,0,2.1415719999931753,sub-51169068
right,right,accuracy,NA,NA,NA,8,0,16,right,1,1.5060023999540135,sub-51169068
left,left,accuracy,NA,NA,NA,8,1,17,left,1,1.1331959000090135,sub-51169068
right,right,accuracy,NA,NA,NA,9,0,18,right,1,1.0583937999326736,sub-51169068
left,left,accuracy,NA,NA,NA,9,1,19,left,1,2.248048899928108,sub-51169068
right,right,accuracy,NA,NA,NA,10,0,20,right,1,1.122999900020659,sub-51169068
left,left,accuracy,NA,NA,NA,10,1,21,left,1,2.773347899899818,sub-51169068
left,left,accuracy,NA,NA,NA,11,0,22,left,1,1.9068596999859435,sub-51169068
right,right,accuracy,NA,NA,NA,11,1,23,right,1,3.1063462999882177,sub-51169068
right,right,accuracy,NA,NA,NA,12,0,24,right,1,1.0504741999320686,sub-51169068
left,left,accuracy,NA,NA,NA,12,1,25,left,1,2.1563572000013664,sub-51169068
left,left,accuracy,NA,NA,NA,13,0,26,left,1,1.7070937000680717,sub-51169068
right,right,accuracy,NA,NA,NA,13,1,27,right,1,1.5528094000183046,sub-51169068
right,right,accuracy,NA,NA,NA,14,0,28,right,1,3.508312699967064,sub-51169068
left,left,accuracy,NA,NA,NA,14,1,29,left,1,1.5974895000690594,sub-51169068
left,left,accuracy,NA,NA,NA,15,0,30,left,1,1.8709281000774352,sub-51169068
right,right,accuracy,NA,NA,NA,15,1,31,right,1,1.1406699999934062,sub-51169068
left,left,accuracy,NA,NA,NA,16,0,32,right,0,1.912698300089687,sub-51169068
right,right,accuracy,NA,NA,NA,16,1,33,right,1,1.5304779999423772,sub-51169068
right,right,accuracy,NA,NA,NA,17,0,34,right,1,1.0766516999574378,sub-51169068
left,left,accuracy,NA,NA,NA,17,1,35,left,1,2.278749000048265,sub-51169068
right,right,accuracy,NA,NA,NA,18,0,36,right,1,0.7791018999414518,sub-51169068
left,left,accuracy,NA,NA,NA,18,1,37,left,1,3.561230199993588,sub-51169068
right,right,accuracy,NA,NA,NA,19,0,38,right,1,5.56785300001502,sub-51169068
left,left,accuracy,NA,NA,NA,19,1,39,left,1,1.0411268000025302,sub-51169068
left,left,accuracy,NA,NA,NA,20,0,40,right,0,2.9735537000233307,sub-51169068
right,right,accuracy,NA,NA,NA,20,1,41,right,1,1.34436980006285,sub-51169068
right,right,accuracy,NA,NA,NA,21,0,42,right,1,1.7230279999785123,sub-51169068
left,left,accuracy,NA,NA,NA,21,1,43,left,1,3.652243099990301,sub-51169068
left,left,accuracy,NA,NA,NA,22,0,44,right,0,0.6898601999273524,sub-51169068
right,right,accuracy,NA,NA,NA,22,1,45,right,1,2.6115987000521272,sub-51169068
left,left,accuracy,NA,NA,NA,23,0,46,left,1,2.557677800068632,sub-51169068
right,right,accuracy,NA,NA,NA,23,1,47,right,1,2.7071605999954045,sub-51169068
left,left,accuracy,NA,NA,NA,24,0,48,left,1,0.8445076999487355,sub-51169068
right,right,accuracy,NA,NA,NA,24,1,49,left,0,1.8002122999168932,sub-51169068
left,left,accuracy,NA,NA,NA,25,0,50,left,1,3.0574498999631032,sub-51169068
right,right,accuracy,NA,NA,NA,25,1,51,right,1,1.3089704000158235,sub-51169068
right,right,accuracy,NA,NA,NA,26,0,52,right,1,1.7874381999718023,sub-51169068
left,left,accuracy,NA,NA,NA,26,1,53,left,1,3.613594900001772,sub-51169068
right,right,accuracy,NA,NA,NA,27,0,54,right,1,0.889601600007154,sub-51169068
left,left,accuracy,NA,NA,NA,27,1,55,left,1,2.276851600036025,sub-51169068
right,right,accuracy,NA,NA,NA,28,0,56,right,1,2.0609539999859408,sub-51169068
left,left,accuracy,NA,NA,NA,28,1,57,right,0,4.7605114000616595,sub-51169068
left,left,accuracy,NA,NA,NA,29,0,58,left,1,3.671528000035323,sub-51169068
right,right,accuracy,NA,NA,NA,29,1,59,right,1,1.523776099900715,sub-51169068
NA,NA,accuracy,NA,NA,NA,NA,NA,NA,NA,NA,NA,sub-51169068
NA,NA,NA,NA,NA,NA,NA,NA,NA,NA,NA,NA,sub-51169068
